age,blockNum,center,colormap,completionCode,correct,correlation,currentOffsets,distance,education,engagementCorrect,gender,generationTime,modelChoice,noiseAmplitude,noisePerturb,noisePerturbCount,prolificId,responseTime,selectedDecoyType,selection,stimulusCorrect,stimulusNum,trialNum,vis,subjectid
35-44,1,0.098716,Hue-5 with Wave-3,,0,0,43.48809406996964,0.0754116844418864,high_school,3,male,1346,0,1.1,1.9,1,5a381de00006450001bf2691,18052,-1,5,75,1,1,fieldSmooth,1
35-44,1,0.098716,Hue-5 with Wave-3,,1,0,43.48809406996964,0.0790680335264571,high_school,3,male,1038,2,1.1,1.9,1,5a381de00006450001bf2691,4977,1,2,75,2,2,fieldSmooth,1
35-44,2,0.098716,Hue-7 with Wave-9,,1,0,48.9271395181075,0.1216564098251199,high_school,3,male,2077,2,1.1,1.9,1,5a381de00006450001bf2691,10287,1,4,75,3,1,fieldSmooth,1
35-44,2,0.098716,Hue-7 with Wave-9,,1,0,48.9271395181075,0.117302064798291,high_school,3,male,1029,1,1.1,1.9,1,5a381de00006450001bf2691,6074,0,1,75,4,2,fieldSmooth,1
35-44,3,0.098716,Hue-7 with Wave-8,,1,0,48.9271395181075,0.0582462086814396,high_school,3,male,2103,1,1.1,1.9,1,5a381de00006450001bf2691,12805,0,5,75,5,1,fieldSmooth,1
35-44,3,0.098716,Hue-7 with Wave-8,,1,0,48.9271395181075,0.0763654491532991,high_school,3,male,1178,2,1.1,1.9,1,5a381de00006450001bf2691,6589,1,3,75,6,2,fieldSmooth,1
35-44,4,0.098716,Hue-7 with Wave-5,,1,0,48.9271395181075,0.0900162516298092,high_school,3,male,1994,2,1.1,1.9,1,5a381de00006450001bf2691,3991,1,2,75,7,1,fieldSmooth,1
35-44,4,0.098716,Hue-7 with Wave-5,,1,0,48.9271395181075,0.0496113002198905,high_school,3,male,1055,2,1.1,1.9,1,5a381de00006450001bf2691,4219,1,6,75,8,2,fieldSmooth,1
35-44,5,0.098716,Hue-0 with Wave-3,,1,0,0.0,0.0576584385138845,high_school,3,male,1757,2,1.1,1.9,1,5a381de00006450001bf2691,9047,1,1,75,9,1,fieldSmooth,1
35-44,5,0.098716,Hue-0 with Wave-3,,1,0,0.0,0.1140144316210895,high_school,3,male,1052,1,1.1,1.9,1,5a381de00006450001bf2691,5863,0,5,75,10,2,fieldSmooth,1
35-44,6,0.098716,Hue-5 with Wave-7,,1,0,43.48809406996964,0.0880089073704449,high_school,3,male,1991,2,1.1,1.9,1,5a381de00006450001bf2691,13081,1,6,75,11,1,fieldSmooth,1
35-44,6,0.098716,Hue-5 with Wave-7,,1,0,43.48809406996964,0.075563198054865,high_school,3,male,966,2,1.1,1.9,1,5a381de00006450001bf2691,4428,1,3,75,12,2,fieldSmooth,1
35-44,7,0.098716,Hue-3 with Wave-3,,1,0,0.7178951735859784,0.0499267245508108,high_school,3,male,1929,2,1.1,1.9,1,5a381de00006450001bf2691,7756,1,4,75,13,1,fieldSmooth,1
35-44,7,0.098716,Hue-3 with Wave-3,,1,0,0.7178951735859784,0.0817289061033625,high_school,3,male,1075,2,1.1,1.9,1,5a381de00006450001bf2691,13519,1,6,75,14,2,fieldSmooth,1
35-44,8,0.098716,Hue-7 with Wave-7,,0,0,48.9271395181075,0.0677092152794661,high_school,3,male,1870,0,1.1,1.9,1,5a381de00006450001bf2691,7559,-1,1,75,15,1,fieldSmooth,1
35-44,8,0.098716,Hue-7 with Wave-7,,1,0,48.9271395181075,0.086298514876018,high_school,3,male,986,2,1.1,1.9,1,5a381de00006450001bf2691,8218,1,4,75,16,2,fieldSmooth,1
35-44,9,0.098716,Hue-0 with Wave-7,,1,0,0.0,0.0752939904190344,high_school,3,male,2023,2,1.1,1.9,1,5a381de00006450001bf2691,4584,1,2,75,17,1,fieldSmooth,1
35-44,9,0.098716,Hue-0 with Wave-7,,1,0,0.0,0.0728447102872454,high_school,3,male,1113,2,1.1,1.9,1,5a381de00006450001bf2691,5067,1,1,75,18,2,fieldSmooth,1
35-44,10,0.098716,Hue-0 with Wave-4,,1,0,0.0,0.1614821018778893,high_school,3,male,1047,2,1.1,1.9,1,5a381de00006450001bf2691,7302,1,5,75,19,1,fieldSmooth,1
35-44,10,0.098716,Hue-0 with Wave-4,,1,0,0.0,0.0748021380960584,high_school,3,male,1022,2,1.1,1.9,1,5a381de00006450001bf2691,7652,1,3,75,20,2,fieldSmooth,1
35-44,11,0.098716,Hue-3 with Wave-6,,1,0,0.7178951735859784,0.0637360884210933,high_school,3,male,1989,2,1.1,1.9,1,5a381de00006450001bf2691,4725,1,5,75,21,1,fieldSmooth,1
35-44,11,0.098716,Hue-3 with Wave-6,,1,0,0.7178951735859784,0.0458962398398316,high_school,3,male,1079,2,1.1,1.9,1,5a381de00006450001bf2691,4648,1,1,75,22,2,fieldSmooth,1
35-44,12,0.098716,Hue-0 with Wave-8,,1,0,0.0,0.044757392864226,high_school,3,male,1778,2,1.1,1.9,1,5a381de00006450001bf2691,6990,1,6,75,23,1,fieldSmooth,1
35-44,12,0.098716,Hue-0 with Wave-8,,1,0,0.0,0.0966248384651146,high_school,3,male,1026,2,1.1,1.9,1,5a381de00006450001bf2691,9586,1,6,75,24,2,fieldSmooth,1
35-44,13,0.098716,Hue-3 with Wave-4,,1,0,0.7178951735859784,0.1109620311349742,high_school,3,male,1940,2,1.1,1.9,1,5a381de00006450001bf2691,5600,1,1,75,25,1,fieldSmooth,1
35-44,13,0.098716,Hue-3 with Wave-4,,1,0,0.7178951735859784,0.0713588758407002,high_school,3,male,1017,2,1.1,1.9,1,5a381de00006450001bf2691,3578,1,2,75,26,2,fieldSmooth,1
35-44,15,0.098716,Hue-7 with Wave-3,,1,0,48.9271395181075,0.0930887882851698,high_school,3,male,1873,2,1.1,1.9,1,5a381de00006450001bf2691,12521,1,4,75,27,1,fieldSmooth,1
35-44,15,0.098716,Hue-7 with Wave-3,,1,0,48.9271395181075,0.052030554505982,high_school,3,male,1070,2,1.1,1.9,1,5a381de00006450001bf2691,14696,1,2,75,28,2,fieldSmooth,1
35-44,16,0.098716,Hue-5 with Wave-0,,1,0,43.48809406996964,0.0721268321988787,high_school,3,male,2047,2,1.1,1.9,1,5a381de00006450001bf2691,8224,1,5,75,29,1,fieldSmooth,1
35-44,16,0.098716,Hue-5 with Wave-0,,1,0,43.48809406996964,0.1029469100382042,high_school,3,male,870,2,1.1,1.9,1,5a381de00006450001bf2691,27808,1,1,75,30,2,fieldSmooth,1
35-44,17,0.098716,Hue-3 with Wave-1,,1,0,0.7178951735859784,0.0458709431485987,high_school,3,male,2213,2,1.1,1.9,1,5a381de00006450001bf2691,3853,1,2,75,31,1,fieldSmooth,1
35-44,17,0.098716,Hue-3 with Wave-1,,1,0,0.7178951735859784,0.069299233296103,high_school,3,male,987,2,1.1,1.9,1,5a381de00006450001bf2691,6057,1,5,75,32,2,fieldSmooth,1
35-44,19,0.098716,Hue-3 with Wave-7,,1,0,0.7178951735859784,0.063399888073667,high_school,3,male,1957,2,1.1,1.9,1,5a381de00006450001bf2691,10273,1,6,75,33,1,fieldSmooth,1
35-44,19,0.098716,Hue-3 with Wave-7,,1,0,0.7178951735859784,0.1162854039803736,high_school,3,male,1009,2,1.1,1.9,1,5a381de00006450001bf2691,6899,1,1,75,34,2,fieldSmooth,1
35-44,20,0.098716,Hue-3 with Wave-9,,1,0,0.7178951735859784,0.0695058443488073,high_school,3,male,1921,2,1.1,1.9,1,5a381de00006450001bf2691,5003,1,6,75,35,1,fieldSmooth,1
35-44,20,0.098716,Hue-3 with Wave-9,,1,0,0.7178951735859784,0.0536535817220095,high_school,3,male,1085,1,1.1,1.9,1,5a381de00006450001bf2691,6755,0,5,75,36,2,fieldSmooth,1
35-44,21,0.098716,Hue-0 with Wave-1,,1,0,0.0,0.0832890278909509,high_school,3,male,1934,2,1.1,1.9,1,5a381de00006450001bf2691,3409,1,3,75,37,1,fieldSmooth,1
35-44,21,0.098716,Hue-0 with Wave-1,,1,0,0.0,0.116996897921609,high_school,3,male,901,1,1.1,1.9,1,5a381de00006450001bf2691,11199,0,1,75,38,2,fieldSmooth,1
35-44,22,0.098716,Hue-0 with Wave-6,,1,0,0.0,0.1212070131304198,high_school,3,male,2137,1,1.1,1.9,1,5a381de00006450001bf2691,10548,0,3,75,39,1,fieldSmooth,1
35-44,22,0.098716,Hue-0 with Wave-6,,1,0,0.0,0.07966417982457,high_school,3,male,942,2,1.1,1.9,1,5a381de00006450001bf2691,6751,1,5,75,40,2,fieldSmooth,1
35-44,23,0.098716,Hue-7 with Wave-2,,1,0,48.9271395181075,0.110411794068585,high_school,3,male,2051,2,1.1,1.9,1,5a381de00006450001bf2691,4235,1,6,75,41,1,fieldSmooth,1
35-44,23,0.098716,Hue-7 with Wave-2,,1,0,48.9271395181075,0.0502227339531522,high_school,3,male,945,2,1.1,1.9,1,5a381de00006450001bf2691,14025,1,5,75,42,2,fieldSmooth,1
35-44,24,0.098716,Hue-5 with Wave-1,,1,0,43.48809406996964,0.0877541285154157,high_school,3,male,2134,2,1.1,1.9,1,5a381de00006450001bf2691,5374,1,1,75,43,1,fieldSmooth,1
35-44,24,0.098716,Hue-5 with Wave-1,,1,0,43.48809406996964,0.0512353946473422,high_school,3,male,958,2,1.1,1.9,1,5a381de00006450001bf2691,7120,1,5,75,44,2,fieldSmooth,1
35-44,25,0.098716,Hue-5 with Wave-4,,1,0,43.48809406996964,0.134178090860425,high_school,3,male,2091,1,1.1,1.9,1,5a381de00006450001bf2691,4746,0,3,75,45,1,fieldSmooth,1
35-44,25,0.098716,Hue-5 with Wave-4,,1,0,43.48809406996964,0.0484238117486831,high_school,3,male,1050,2,1.1,1.9,1,5a381de00006450001bf2691,3544,1,6,75,46,2,fieldSmooth,1
35-44,26,0.098716,Hue-7 with Wave-6,,0,0,48.9271395181075,0.1019818337498573,high_school,3,male,1964,0,1.1,1.9,1,5a381de00006450001bf2691,6218,-1,5,75,47,1,fieldSmooth,1
35-44,26,0.098716,Hue-7 with Wave-6,,1,0,48.9271395181075,0.0709345585905593,high_school,3,male,1043,1,1.1,1.9,1,5a381de00006450001bf2691,3752,0,3,75,48,2,fieldSmooth,1
35-44,27,0.098716,Hue-3 with Wave-8,,1,0,0.7178951735859784,0.1087783036545115,high_school,3,male,1858,1,1.1,1.9,1,5a381de00006450001bf2691,4198,0,6,75,49,1,fieldSmooth,1
35-44,27,0.098716,Hue-3 with Wave-8,,1,0,0.7178951735859784,0.0672968109764445,high_school,3,male,1088,2,1.1,1.9,1,5a381de00006450001bf2691,8780,1,3,75,50,2,fieldSmooth,1
35-44,28,0.098716,Hue-3 with Wave-2,,1,0,0.7178951735859784,0.1103652085675203,high_school,3,male,1935,2,1.1,1.9,1,5a381de00006450001bf2691,6292,1,2,75,51,1,fieldSmooth,1
35-44,28,0.098716,Hue-3 with Wave-2,,1,0,0.7178951735859784,0.0644349036702689,high_school,3,male,1034,2,1.1,1.9,1,5a381de00006450001bf2691,4270,1,6,75,52,2,fieldSmooth,1
35-44,29,0.098716,Hue-5 with Wave-5,,1,0,43.48809406996964,0.0866109563456442,high_school,3,male,1956,2,1.1,1.9,1,5a381de00006450001bf2691,4379,1,4,75,53,1,fieldSmooth,1
35-44,29,0.098716,Hue-5 with Wave-5,,1,0,43.48809406996964,0.1258791812454092,high_school,3,male,989,2,1.1,1.9,1,5a381de00006450001bf2691,9912,1,5,75,54,2,fieldSmooth,1
35-44,30,0.098716,Hue-5 with Wave-9,,1,0,43.48809406996964,0.1525443437160296,high_school,3,male,1942,1,1.1,1.9,1,5a381de00006450001bf2691,5288,0,6,75,55,1,fieldSmooth,1
35-44,30,0.098716,Hue-5 with Wave-9,,1,0,43.48809406996964,0.088700323032332,high_school,3,male,1022,1,1.1,1.9,1,5a381de00006450001bf2691,4295,0,1,75,56,2,fieldSmooth,1
35-44,32,0.098716,Hue-3 with Wave-5,,1,0,0.7178951735859784,0.0624146341105318,high_school,3,male,2042,2,1.1,1.9,1,5a381de00006450001bf2691,5728,1,1,75,57,1,fieldSmooth,1
35-44,32,0.098716,Hue-3 with Wave-5,,1,0,0.7178951735859784,0.1023054742608385,high_school,3,male,1024,1,1.1,1.9,1,5a381de00006450001bf2691,10870,0,1,75,58,2,fieldSmooth,1
35-44,33,0.098716,Hue-3 with Wave-0,,1,0,0.7178951735859784,0.100183426564088,high_school,3,male,2055,1,1.1,1.9,1,5a381de00006450001bf2691,5357,0,5,75,59,1,fieldSmooth,1
35-44,33,0.098716,Hue-3 with Wave-0,,1,0,0.7178951735859784,0.0787902400781277,high_school,3,male,1007,1,1.1,1.9,1,5a381de00006450001bf2691,12955,0,6,75,60,2,fieldSmooth,1
35-44,34,0.098716,Hue-7 with Wave-0,,1,0,48.9271395181075,0.0544864611056483,high_school,3,male,1999,1,1.1,1.9,1,5a381de00006450001bf2691,16137,0,6,75,61,1,fieldSmooth,1
35-44,34,0.098716,Hue-7 with Wave-0,,1,0,48.9271395181075,0.0783134265985564,high_school,3,male,978,1,1.1,1.9,1,5a381de00006450001bf2691,10718,0,6,75,62,2,fieldSmooth,1
35-44,35,0.098716,Hue-7 with Wave-4,,1,0,48.9271395181075,0.0821248685187393,high_school,3,male,2108,1,1.1,1.9,1,5a381de00006450001bf2691,4020,0,3,75,63,1,fieldSmooth,1
35-44,35,0.098716,Hue-7 with Wave-4,,1,0,48.9271395181075,0.0409339781297434,high_school,3,male,972,1,1.1,1.9,1,5a381de00006450001bf2691,9176,0,1,75,64,2,fieldSmooth,1
35-44,36,0.098716,Hue-5 with Wave-6,,1,0,43.48809406996964,0.0625537162341404,high_school,3,male,2106,1,1.1,1.9,1,5a381de00006450001bf2691,5489,0,2,75,65,1,fieldSmooth,1
35-44,36,0.098716,Hue-5 with Wave-6,,1,0,43.48809406996964,0.0638775003069307,high_school,3,male,1066,2,1.1,1.9,1,5a381de00006450001bf2691,4646,1,3,75,66,2,fieldSmooth,1
35-44,37,0.098716,Hue-5 with Wave-2,,1,0,43.48809406996964,0.0814336607007642,high_school,3,male,2004,2,1.1,1.9,1,5a381de00006450001bf2691,4331,1,1,75,67,1,fieldSmooth,1
35-44,37,0.098716,Hue-5 with Wave-2,,1,0,43.48809406996964,0.0486523468713595,high_school,3,male,1137,2,1.1,1.9,1,5a381de00006450001bf2691,7355,1,1,75,68,2,fieldSmooth,1
35-44,38,0.098716,Hue-0 with Wave-9,,1,0,0.0,0.0835910898273137,high_school,3,male,1696,2,1.1,1.9,1,5a381de00006450001bf2691,17792,1,4,75,69,1,fieldSmooth,1
35-44,38,0.098716,Hue-0 with Wave-9,,1,0,0.0,0.0816231922116629,high_school,3,male,1025,1,1.1,1.9,1,5a381de00006450001bf2691,6993,0,4,75,70,2,fieldSmooth,1
35-44,39,0.098716,Hue-7 with Wave-1,,1,0,48.9271395181075,0.0648262386940066,high_school,3,male,1937,1,1.1,1.9,1,5a381de00006450001bf2691,6646,0,1,75,71,1,fieldSmooth,1
35-44,39,0.098716,Hue-7 with Wave-1,,1,0,48.9271395181075,0.0621384476037575,high_school,3,male,999,2,1.1,1.9,1,5a381de00006450001bf2691,3892,1,4,75,72,2,fieldSmooth,1
35-44,40,0.098716,Hue-5 with Wave-8,,1,0,43.48809406996964,0.0974247828692175,high_school,3,male,2053,2,1.1,1.9,1,5a381de00006450001bf2691,3355,1,4,75,73,1,fieldSmooth,1
35-44,40,0.098716,Hue-5 with Wave-8,,1,0,43.48809406996964,0.0584855721850902,high_school,3,male,1152,1,1.1,1.9,1,5a381de00006450001bf2691,5999,0,3,75,74,2,fieldSmooth,1
35-44,41,0.098716,Hue-0 with Wave-5,,1,0,0.0,0.0640577024589007,high_school,3,male,1900,2,1.1,1.9,1,5a381de00006450001bf2691,8449,1,5,75,75,1,fieldSmooth,1
35-44,41,0.098716,Hue-0 with Wave-5,,1,0,0.0,0.0514480229750132,high_school,3,male,1120,2,1.1,1.9,1,5a381de00006450001bf2691,4844,1,4,75,76,2,fieldSmooth,1
35-44,42,0.098716,Hue-0 with Wave-2,,1,0,0.0,0.0502787520157606,high_school,3,male,2003,2,1.1,1.9,1,5a381de00006450001bf2691,3090,1,6,75,77,1,fieldSmooth,1
35-44,42,0.098716,Hue-0 with Wave-2,,1,0,0.0,0.1181370414577344,high_school,3,male,892,2,1.1,1.9,1,5a381de00006450001bf2691,3793,1,4,75,78,2,fieldSmooth,1
35-44,1,0.098716,Hue-7 with Wave-9,,1,0,47.19109842023962,0.0785516543983891,high_school,3,male,1269,1,1.1,1.9,1,5bcd315d0f10750001d7f22e,9043,0,5,77,1,1,fieldSmooth,2
35-44,1,0.098716,Hue-7 with Wave-9,,1,0,47.19109842023962,0.0925407567744066,high_school,3,male,1168,2,1.1,1.9,1,5bcd315d0f10750001d7f22e,11135,1,5,77,2,2,fieldSmooth,2
35-44,2,0.098716,Hue-5 with Wave-0,,1,0,8.478160530821302,0.0653521744162614,high_school,3,male,1476,1,1.1,1.9,1,5bcd315d0f10750001d7f22e,5160,0,5,77,3,1,fieldSmooth,2
35-44,2,0.098716,Hue-5 with Wave-0,,1,0,8.478160530821302,0.0431308773047348,high_school,3,male,1526,1,1.1,1.9,1,5bcd315d0f10750001d7f22e,5044,0,6,77,4,2,fieldSmooth,2
35-44,3,0.098716,Hue-0 with Wave-1,,0,0,0.0,0.0921123922021131,high_school,3,male,1499,0,1.1,1.9,1,5bcd315d0f10750001d7f22e,18156,-1,1,77,5,1,fieldSmooth,2
35-44,3,0.098716,Hue-0 with Wave-1,,1,0,0.0,0.0958366550055902,high_school,3,male,1083,2,1.1,1.9,1,5bcd315d0f10750001d7f22e,4829,1,6,77,6,2,fieldSmooth,2
35-44,4,0.098716,Hue-7 with Wave-7,,1,0,47.19109842023962,0.1096167026186313,high_school,3,male,1561,1,1.1,1.9,1,5bcd315d0f10750001d7f22e,9669,0,2,77,7,1,fieldSmooth,2
35-44,4,0.098716,Hue-7 with Wave-7,,1,0,47.19109842023962,0.0568020917483457,high_school,3,male,1227,1,1.1,1.9,1,5bcd315d0f10750001d7f22e,8787,0,4,77,8,2,fieldSmooth,2
35-44,6,0.098716,Hue-0 with Wave-7,,1,0,0.0,0.1214066213856739,high_school,3,male,1435,1,1.1,1.9,1,5bcd315d0f10750001d7f22e,4150,0,1,77,9,1,fieldSmooth,2
35-44,6,0.098716,Hue-0 with Wave-7,,1,0,0.0,0.0636174630989641,high_school,3,male,1184,1,1.1,1.9,1,5bcd315d0f10750001d7f22e,10873,0,6,77,10,2,fieldSmooth,2
35-44,7,0.098716,Hue-5 with Wave-3,,1,0,8.478160530821302,0.0496929118007525,high_school,3,male,1479,1,1.1,1.9,1,5bcd315d0f10750001d7f22e,5030,0,4,77,11,1,fieldSmooth,2
35-44,7,0.098716,Hue-5 with Wave-3,,1,0,8.478160530821302,0.0760241400602276,high_school,3,male,1086,2,1.1,1.9,1,5bcd315d0f10750001d7f22e,7866,1,3,77,12,2,fieldSmooth,2
35-44,8,0.098716,Hue-7 with Wave-8,,1,0,47.19109842023962,0.0797381606220625,high_school,3,male,1255,1,1.1,1.9,1,5bcd315d0f10750001d7f22e,8089,0,5,77,13,1,fieldSmooth,2
35-44,8,0.098716,Hue-7 with Wave-8,,1,0,47.19109842023962,0.0579291347930622,high_school,3,male,1309,1,1.1,1.9,1,5bcd315d0f10750001d7f22e,3407,0,6,77,14,2,fieldSmooth,2
35-44,9,0.098716,Hue-7 with Wave-0,,1,0,47.19109842023962,0.0631998482150404,high_school,3,male,1430,1,1.1,1.9,1,5bcd315d0f10750001d7f22e,5333,0,3,77,15,1,fieldSmooth,2
35-44,9,0.098716,Hue-7 with Wave-0,,1,0,47.19109842023962,0.1115478173472329,high_school,3,male,1096,1,1.1,1.9,1,5bcd315d0f10750001d7f22e,4834,0,6,77,16,2,fieldSmooth,2
35-44,10,0.098716,Hue-3 with Wave-7,,1,0,2.9275678782354664,0.06124538643281,high_school,3,male,1664,1,1.1,1.9,1,5bcd315d0f10750001d7f22e,5478,0,6,77,17,1,fieldSmooth,2
35-44,10,0.098716,Hue-3 with Wave-7,,1,0,2.9275678782354664,0.097328421463927,high_school,3,male,1174,1,1.1,1.9,1,5bcd315d0f10750001d7f22e,4740,0,4,77,18,2,fieldSmooth,2
35-44,11,0.098716,Hue-3 with Wave-2,,1,0,2.9275678782354664,0.0561137212229005,high_school,3,male,1922,2,1.1,1.9,1,5bcd315d0f10750001d7f22e,5601,1,6,77,19,1,fieldSmooth,2
35-44,11,0.098716,Hue-3 with Wave-2,,1,0,2.9275678782354664,0.069183590139362,high_school,3,male,1167,1,1.1,1.9,1,5bcd315d0f10750001d7f22e,12390,0,3,77,20,2,fieldSmooth,2
35-44,12,0.098716,Hue-0 with Wave-8,,1,0,0.0,0.1127644827504056,high_school,3,male,1135,1,1.1,1.9,1,5bcd315d0f10750001d7f22e,4824,0,3,77,21,1,fieldSmooth,2
35-44,12,0.098716,Hue-0 with Wave-8,,1,0,0.0,0.1080801226787154,high_school,3,male,1003,1,1.1,1.9,1,5bcd315d0f10750001d7f22e,4810,0,4,77,22,2,fieldSmooth,2
35-44,13,0.098716,Hue-3 with Wave-1,,1,0,2.9275678782354664,0.0612490551517104,high_school,3,male,1447,1,1.1,1.9,1,5bcd315d0f10750001d7f22e,5334,0,4,77,23,1,fieldSmooth,2
35-44,13,0.098716,Hue-3 with Wave-1,,1,0,2.9275678782354664,0.0870102302635971,high_school,3,male,1145,2,1.1,1.9,1,5bcd315d0f10750001d7f22e,10562,1,3,77,24,2,fieldSmooth,2
35-44,14,0.098716,Hue-7 with Wave-3,,1,0,47.19109842023962,0.1048420764123966,high_school,3,male,1420,1,1.1,1.9,1,5bcd315d0f10750001d7f22e,7807,0,1,77,25,1,fieldSmooth,2
35-44,14,0.098716,Hue-7 with Wave-3,,1,0,47.19109842023962,0.0952061675600845,high_school,3,male,1131,1,1.1,1.9,1,5bcd315d0f10750001d7f22e,3877,0,2,77,26,2,fieldSmooth,2
35-44,15,0.098716,Hue-5 with Wave-6,,1,0,8.478160530821302,0.0806080090549829,high_school,3,male,1594,1,1.1,1.9,1,5bcd315d0f10750001d7f22e,4096,0,4,77,27,1,fieldSmooth,2
35-44,15,0.098716,Hue-5 with Wave-6,,1,0,8.478160530821302,0.056358971693209,high_school,3,male,1532,1,1.1,1.9,1,5bcd315d0f10750001d7f22e,14915,0,2,77,28,2,fieldSmooth,2
35-44,16,0.098716,Hue-3 with Wave-5,,1,0,2.9275678782354664,0.0575712182808366,high_school,3,male,2211,1,1.1,1.9,1,5bcd315d0f10750001d7f22e,3461,0,4,77,29,1,fieldSmooth,2
35-44,16,0.098716,Hue-3 with Wave-5,,1,0,2.9275678782354664,0.0970090488175032,high_school,3,male,1054,1,1.1,1.9,1,5bcd315d0f10750001d7f22e,4463,0,6,77,30,2,fieldSmooth,2
35-44,17,0.098716,Hue-7 with Wave-6,,1,0,47.19109842023962,0.0855670517386058,high_school,3,male,1507,1,1.1,1.9,1,5bcd315d0f10750001d7f22e,8032,0,2,77,31,1,fieldSmooth,2
35-44,17,0.098716,Hue-7 with Wave-6,,1,0,47.19109842023962,0.0934415521256612,high_school,3,male,1309,1,1.1,1.9,1,5bcd315d0f10750001d7f22e,51418,0,5,77,32,2,fieldSmooth,2
35-44,19,0.098716,Hue-0 with Wave-3,,1,0,0.0,0.0527384937145129,high_school,3,male,1484,2,1.1,1.9,1,5bcd315d0f10750001d7f22e,3711,1,3,77,33,1,fieldSmooth,2
35-44,19,0.098716,Hue-0 with Wave-3,,1,0,0.0,0.0980093746602235,high_school,3,male,1216,1,1.1,1.9,1,5bcd315d0f10750001d7f22e,7884,0,2,77,34,2,fieldSmooth,2
35-44,20,0.098716,Hue-3 with Wave-4,,1,0,2.9275678782354664,0.0614672899930818,high_school,3,male,1521,2,1.1,1.9,1,5bcd315d0f10750001d7f22e,3986,1,6,77,35,1,fieldSmooth,2
35-44,20,0.098716,Hue-3 with Wave-4,,1,0,2.9275678782354664,0.0856930705395625,high_school,3,male,1203,1,1.1,1.9,1,5bcd315d0f10750001d7f22e,8689,0,1,77,36,2,fieldSmooth,2
35-44,21,0.098716,Hue-7 with Wave-1,,1,0,47.19109842023962,0.0935783871178368,high_school,3,male,1322,1,1.1,1.9,1,5bcd315d0f10750001d7f22e,5908,0,4,77,37,1,fieldSmooth,2
35-44,21,0.098716,Hue-7 with Wave-1,,1,0,47.19109842023962,0.083966651631908,high_school,3,male,1191,1,1.1,1.9,1,5bcd315d0f10750001d7f22e,5151,0,4,77,38,2,fieldSmooth,2
35-44,22,0.098716,Hue-0 with Wave-9,,1,0,0.0,0.1009525135443593,high_school,3,male,1300,1,1.1,1.9,1,5bcd315d0f10750001d7f22e,2749,0,4,77,39,1,fieldSmooth,2
35-44,22,0.098716,Hue-0 with Wave-9,,1,0,0.0,0.1367188287408199,high_school,3,male,1008,2,1.1,1.9,1,5bcd315d0f10750001d7f22e,16511,1,1,77,40,2,fieldSmooth,2
35-44,23,0.098716,Hue-3 with Wave-0,,1,0,2.9275678782354664,0.0798195929267583,high_school,3,male,1180,2,1.1,1.9,1,5bcd315d0f10750001d7f22e,4558,1,3,77,41,1,fieldSmooth,2
35-44,23,0.098716,Hue-3 with Wave-0,,1,0,2.9275678782354664,0.0556287939378978,high_school,3,male,1066,2,1.1,1.9,1,5bcd315d0f10750001d7f22e,16428,1,4,77,42,2,fieldSmooth,2
35-44,24,0.098716,Hue-7 with Wave-2,,1,0,47.19109842023962,0.1135140270585628,high_school,3,male,1385,1,1.1,1.9,1,5bcd315d0f10750001d7f22e,8385,0,2,77,43,1,fieldSmooth,2
35-44,24,0.098716,Hue-7 with Wave-2,,1,0,47.19109842023962,0.0639395982181802,high_school,3,male,1341,2,1.1,1.9,1,5bcd315d0f10750001d7f22e,7831,1,4,77,44,2,fieldSmooth,2
35-44,25,0.098716,Hue-5 with Wave-7,,1,0,8.478160530821302,0.0834704465312208,high_school,3,male,1371,1,1.1,1.9,1,5bcd315d0f10750001d7f22e,11903,0,4,77,45,1,fieldSmooth,2
35-44,25,0.098716,Hue-5 with Wave-7,,1,0,8.478160530821302,0.0721251038513862,high_school,3,male,1190,2,1.1,1.9,1,5bcd315d0f10750001d7f22e,5366,1,6,77,46,2,fieldSmooth,2
35-44,26,0.098716,Hue-5 with Wave-5,,1,0,8.478160530821302,0.080742292644805,high_school,3,male,1529,1,1.1,1.9,1,5bcd315d0f10750001d7f22e,9460,0,1,77,47,1,fieldSmooth,2
35-44,26,0.098716,Hue-5 with Wave-5,,1,0,8.478160530821302,0.1182731684840713,high_school,3,male,1023,1,1.1,1.9,1,5bcd315d0f10750001d7f22e,9965,0,1,77,48,2,fieldSmooth,2
35-44,27,0.098716,Hue-0 with Wave-6,,1,0,0.0,0.0864071633290056,high_school,3,male,1610,1,1.1,1.9,1,5bcd315d0f10750001d7f22e,3517,0,3,77,49,1,fieldSmooth,2
35-44,27,0.098716,Hue-0 with Wave-6,,1,0,0.0,0.0467911490130557,high_school,3,male,1166,1,1.1,1.9,1,5bcd315d0f10750001d7f22e,3806,0,3,77,50,2,fieldSmooth,2
35-44,28,0.098716,Hue-3 with Wave-3,,1,0,2.9275678782354664,0.0725619290359805,high_school,3,male,1502,2,1.1,1.9,1,5bcd315d0f10750001d7f22e,23441,1,1,77,51,1,fieldSmooth,2
35-44,28,0.098716,Hue-3 with Wave-3,,1,0,2.9275678782354664,0.0748346740597035,high_school,3,male,1090,2,1.1,1.9,1,5bcd315d0f10750001d7f22e,5445,1,1,77,52,2,fieldSmooth,2
35-44,30,0.098716,Hue-5 with Wave-4,,1,0,8.478160530821302,0.0618730416156224,high_school,3,male,1198,2,1.1,1.9,1,5bcd315d0f10750001d7f22e,3708,1,1,77,53,1,fieldSmooth,2
35-44,30,0.098716,Hue-5 with Wave-4,,1,0,8.478160530821302,0.0528610263274938,high_school,3,male,1179,1,1.1,1.9,1,5bcd315d0f10750001d7f22e,17521,0,5,77,54,2,fieldSmooth,2
35-44,31,0.098716,Hue-5 with Wave-9,,1,0,8.478160530821302,0.1052301392338718,high_school,3,male,1475,1,1.1,1.9,1,5bcd315d0f10750001d7f22e,2617,0,4,77,55,1,fieldSmooth,2
35-44,31,0.098716,Hue-5 with Wave-9,,1,0,8.478160530821302,0.0789227205290361,high_school,3,male,1245,1,1.1,1.9,1,5bcd315d0f10750001d7f22e,3478,0,2,77,56,2,fieldSmooth,2
35-44,32,0.098716,Hue-5 with Wave-1,,1,0,8.478160530821302,0.0949194041592847,high_school,3,male,1307,2,1.1,1.9,1,5bcd315d0f10750001d7f22e,4550,1,6,77,57,1,fieldSmooth,2
35-44,32,0.098716,Hue-5 with Wave-1,,1,0,8.478160530821302,0.0747242683700801,high_school,3,male,1086,2,1.1,1.9,1,5bcd315d0f10750001d7f22e,4658,1,3,77,58,2,fieldSmooth,2
35-44,33,0.098716,Hue-0 with Wave-5,,1,0,0.0,0.0492418816369857,high_school,3,male,1395,2,1.1,1.9,1,5bcd315d0f10750001d7f22e,3099,1,3,77,59,1,fieldSmooth,2
35-44,33,0.098716,Hue-0 with Wave-5,,1,0,0.0,0.0814427667580911,high_school,3,male,947,1,1.1,1.9,1,5bcd315d0f10750001d7f22e,8465,0,1,77,60,2,fieldSmooth,2
35-44,34,0.098716,Hue-5 with Wave-8,,1,0,8.478160530821302,0.1301184864522031,high_school,3,male,1414,1,1.1,1.9,1,5bcd315d0f10750001d7f22e,3043,0,6,77,61,1,fieldSmooth,2
35-44,34,0.098716,Hue-5 with Wave-8,,1,0,8.478160530821302,0.0541529366636271,high_school,3,male,1168,1,1.1,1.9,1,5bcd315d0f10750001d7f22e,13621,0,3,77,62,2,fieldSmooth,2
35-44,35,0.098716,Hue-7 with Wave-5,,1,0,47.19109842023962,0.0793720817455704,high_school,3,male,1315,1,1.1,1.9,1,5bcd315d0f10750001d7f22e,7639,0,5,77,63,1,fieldSmooth,2
35-44,35,0.098716,Hue-7 with Wave-5,,1,0,47.19109842023962,0.0586558022740887,high_school,3,male,1182,1,1.1,1.9,1,5bcd315d0f10750001d7f22e,3119,0,1,77,64,2,fieldSmooth,2
35-44,36,0.098716,Hue-3 with Wave-8,,1,0,2.9275678782354664,0.0545506180053069,high_school,3,male,1518,1,1.1,1.9,1,5bcd315d0f10750001d7f22e,17609,0,3,77,65,1,fieldSmooth,2
35-44,36,0.098716,Hue-3 with Wave-8,,1,0,2.9275678782354664,0.0690116607080457,high_school,3,male,1273,1,1.1,1.9,1,5bcd315d0f10750001d7f22e,4281,0,1,77,66,2,fieldSmooth,2
35-44,37,0.098716,Hue-5 with Wave-2,,1,0,8.478160530821302,0.0408919473347116,high_school,3,male,1605,2,1.1,1.9,1,5bcd315d0f10750001d7f22e,27987,1,2,77,67,1,fieldSmooth,2
35-44,37,0.098716,Hue-5 with Wave-2,,1,0,8.478160530821302,0.079464444724464,high_school,3,male,1117,2,1.1,1.9,1,5bcd315d0f10750001d7f22e,6110,1,6,77,68,2,fieldSmooth,2
35-44,38,0.098716,Hue-0 with Wave-4,,1,0,0.0,0.1152056392417531,high_school,3,male,1062,1,1.1,1.9,1,5bcd315d0f10750001d7f22e,4784,0,2,77,69,1,fieldSmooth,2
35-44,38,0.098716,Hue-0 with Wave-4,,1,0,0.0,0.0731750695002225,high_school,3,male,1160,1,1.1,1.9,1,5bcd315d0f10750001d7f22e,3458,0,2,77,70,2,fieldSmooth,2
35-44,39,0.098716,Hue-0 with Wave-2,,1,0,0.0,0.0886594193029539,high_school,3,male,1371,1,1.1,1.9,1,5bcd315d0f10750001d7f22e,4470,0,3,77,71,1,fieldSmooth,2
35-44,39,0.098716,Hue-0 with Wave-2,,1,0,0.0,0.0679496343297096,high_school,3,male,1097,1,1.1,1.9,1,5bcd315d0f10750001d7f22e,18041,0,5,77,72,2,fieldSmooth,2
35-44,40,0.098716,Hue-7 with Wave-4,,1,0,47.19109842023962,0.0906217073150718,high_school,3,male,1494,2,1.1,1.9,1,5bcd315d0f10750001d7f22e,8116,1,2,77,73,1,fieldSmooth,2
35-44,40,0.098716,Hue-7 with Wave-4,,1,0,47.19109842023962,0.0945241490106274,high_school,3,male,1246,1,1.1,1.9,1,5bcd315d0f10750001d7f22e,8833,0,5,77,74,2,fieldSmooth,2
35-44,41,0.098716,Hue-3 with Wave-9,,1,0,2.9275678782354664,0.0628679823567098,high_school,3,male,1536,2,1.1,1.9,1,5bcd315d0f10750001d7f22e,6417,1,2,77,75,1,fieldSmooth,2
35-44,41,0.098716,Hue-3 with Wave-9,,1,0,2.9275678782354664,0.0707613352862406,high_school,3,male,1103,1,1.1,1.9,1,5bcd315d0f10750001d7f22e,17818,0,1,77,76,2,fieldSmooth,2
35-44,42,0.098716,Hue-3 with Wave-6,,1,0,2.9275678782354664,0.0634529897547147,high_school,3,male,1448,1,1.1,1.9,1,5bcd315d0f10750001d7f22e,3397,0,6,77,77,1,fieldSmooth,2
35-44,42,0.098716,Hue-3 with Wave-6,,1,0,2.9275678782354664,0.0478359894789852,high_school,3,male,1175,1,1.1,1.9,1,5bcd315d0f10750001d7f22e,14305,0,1,77,78,2,fieldSmooth,2
65+,1,0.098716,Hue-5 with Wave-3,,1,0,6.338866799913041,0.0698392211634962,high_school,3,male,689,1,1.1,1.9,1,5c1ffe5295f978000173df84,9050,0,2,75,1,1,fieldSmooth,3
65+,1,0.098716,Hue-5 with Wave-3,,1,0,6.338866799913041,0.0534641287771864,high_school,3,male,714,1,1.1,1.9,1,5c1ffe5295f978000173df84,7972,0,6,75,2,2,fieldSmooth,3
65+,2,0.098716,Hue-7 with Wave-5,,1,0,55.21606057317763,0.1138367571905811,high_school,3,male,797,1,1.1,1.9,1,5c1ffe5295f978000173df84,6489,0,6,75,3,1,fieldSmooth,3
65+,2,0.098716,Hue-7 with Wave-5,,1,0,55.21606057317763,0.0631669449885263,high_school,3,male,636,1,1.1,1.9,1,5c1ffe5295f978000173df84,9497,0,2,75,4,2,fieldSmooth,3
65+,3,0.098716,Hue-7 with Wave-3,,1,0,55.21606057317763,0.1019588645452042,high_school,3,male,908,1,1.1,1.9,1,5c1ffe5295f978000173df84,4533,0,5,75,5,1,fieldSmooth,3
65+,3,0.098716,Hue-7 with Wave-3,,1,0,55.21606057317763,0.0552177365283706,high_school,3,male,725,1,1.1,1.9,1,5c1ffe5295f978000173df84,4270,0,6,75,6,2,fieldSmooth,3
65+,4,0.098716,Hue-5 with Wave-2,,1,0,6.338866799913041,0.0578462425353614,high_school,3,male,828,1,1.1,1.9,1,5c1ffe5295f978000173df84,5092,0,5,75,7,1,fieldSmooth,3
65+,4,0.098716,Hue-5 with Wave-2,,1,0,6.338866799913041,0.0804000769842057,high_school,3,male,637,1,1.1,1.9,1,5c1ffe5295f978000173df84,10779,0,1,75,8,2,fieldSmooth,3
65+,5,0.098716,Hue-7 with Wave-2,,1,0,55.21606057317763,0.0457058837969452,high_school,3,male,841,1,1.1,1.9,1,5c1ffe5295f978000173df84,12602,0,6,75,9,1,fieldSmooth,3
65+,5,0.098716,Hue-7 with Wave-2,,1,0,55.21606057317763,0.1016283837130043,high_school,3,male,657,1,1.1,1.9,1,5c1ffe5295f978000173df84,4558,0,5,75,10,2,fieldSmooth,3
65+,7,0.098716,Hue-0 with Wave-6,,1,0,0.0,0.0476499925413756,high_school,3,male,829,1,1.1,1.9,1,5c1ffe5295f978000173df84,7147,0,5,75,11,1,fieldSmooth,3
65+,7,0.098716,Hue-0 with Wave-6,,1,0,0.0,0.0825443391773334,high_school,3,male,568,2,1.1,1.9,1,5c1ffe5295f978000173df84,4103,1,5,75,12,2,fieldSmooth,3
65+,8,0.098716,Hue-7 with Wave-8,,1,0,55.21606057317763,0.0838234716938466,high_school,3,male,696,1,1.1,1.9,1,5c1ffe5295f978000173df84,4877,0,4,75,13,1,fieldSmooth,3
65+,8,0.098716,Hue-7 with Wave-8,,1,0,55.21606057317763,0.0791014998618598,high_school,3,male,672,2,1.1,1.9,1,5c1ffe5295f978000173df84,5078,1,3,75,14,2,fieldSmooth,3
65+,10,0.098716,Hue-7 with Wave-1,,1,0,55.21606057317763,0.0734621078789206,high_school,3,male,781,1,1.1,1.9,1,5c1ffe5295f978000173df84,6989,0,4,75,15,1,fieldSmooth,3
65+,10,0.098716,Hue-7 with Wave-1,,1,0,55.21606057317763,0.1035780394745873,high_school,3,male,576,1,1.1,1.9,1,5c1ffe5295f978000173df84,5747,0,5,75,16,2,fieldSmooth,3
65+,11,0.098716,Hue-5 with Wave-7,,1,0,6.338866799913041,0.0809569893938055,high_school,3,male,785,1,1.1,1.9,1,5c1ffe5295f978000173df84,3068,0,2,75,17,1,fieldSmooth,3
65+,11,0.098716,Hue-5 with Wave-7,,1,0,6.338866799913041,0.0709063370484618,high_school,3,male,648,1,1.1,1.9,1,5c1ffe5295f978000173df84,7025,0,5,75,18,2,fieldSmooth,3
65+,12,0.098716,Hue-3 with Wave-3,,1,0,51.19148717168969,0.0809492265471935,high_school,3,male,899,1,1.1,1.9,1,5c1ffe5295f978000173df84,7855,0,5,75,19,1,fieldSmooth,3
65+,12,0.098716,Hue-3 with Wave-3,,1,0,51.19148717168969,0.1457775649491345,high_school,3,male,622,1,1.1,1.9,1,5c1ffe5295f978000173df84,4070,0,5,75,20,2,fieldSmooth,3
65+,13,0.098716,Hue-3 with Wave-7,,1,0,51.19148717168969,0.0799386163888486,high_school,3,male,902,1,1.1,1.9,1,5c1ffe5295f978000173df84,3258,0,5,75,21,1,fieldSmooth,3
65+,13,0.098716,Hue-3 with Wave-7,,1,0,51.19148717168969,0.0641984089324869,high_school,3,male,654,1,1.1,1.9,1,5c1ffe5295f978000173df84,4111,0,2,75,22,2,fieldSmooth,3
65+,14,0.098716,Hue-0 with Wave-3,,1,0,0.0,0.0632933624097428,high_school,3,male,771,1,1.1,1.9,1,5c1ffe5295f978000173df84,5201,0,2,75,23,1,fieldSmooth,3
65+,14,0.098716,Hue-0 with Wave-3,,1,0,0.0,0.0775811828823093,high_school,3,male,600,2,1.1,1.9,1,5c1ffe5295f978000173df84,4656,1,2,75,24,2,fieldSmooth,3
65+,15,0.098716,Hue-7 with Wave-7,,1,0,55.21606057317763,0.0460718026638373,high_school,3,male,742,2,1.1,1.9,1,5c1ffe5295f978000173df84,10528,1,5,75,25,1,fieldSmooth,3
65+,15,0.098716,Hue-7 with Wave-7,,1,0,55.21606057317763,0.0702023129522653,high_school,3,male,617,1,1.1,1.9,1,5c1ffe5295f978000173df84,3019,0,3,75,26,2,fieldSmooth,3
65+,16,0.098716,Hue-0 with Wave-2,,1,0,0.0,0.0499980424763766,high_school,3,male,828,1,1.1,1.9,1,5c1ffe5295f978000173df84,8330,0,6,75,27,1,fieldSmooth,3
65+,16,0.098716,Hue-0 with Wave-2,,1,0,0.0,0.0488982095140988,high_school,3,male,644,2,1.1,1.9,1,5c1ffe5295f978000173df84,7864,1,3,75,28,2,fieldSmooth,3
65+,17,0.098716,Hue-5 with Wave-9,,1,0,6.338866799913041,0.0951841752514406,high_school,3,male,869,1,1.1,1.9,1,5c1ffe5295f978000173df84,3017,0,2,75,29,1,fieldSmooth,3
65+,17,0.098716,Hue-5 with Wave-9,,1,0,6.338866799913041,0.0653458760876962,high_school,3,male,664,2,1.1,1.9,1,5c1ffe5295f978000173df84,6998,1,3,75,30,2,fieldSmooth,3
65+,18,0.098716,Hue-0 with Wave-5,,1,0,0.0,0.1084772215351491,high_school,3,male,779,1,1.1,1.9,1,5c1ffe5295f978000173df84,3955,0,5,75,31,1,fieldSmooth,3
65+,18,0.098716,Hue-0 with Wave-5,,1,0,0.0,0.0649914871655217,high_school,3,male,611,2,1.1,1.9,1,5c1ffe5295f978000173df84,13111,1,2,75,32,2,fieldSmooth,3
65+,19,0.098716,Hue-0 with Wave-8,,1,0,0.0,0.0492323252649235,high_school,3,male,610,1,1.1,1.9,1,5c1ffe5295f978000173df84,4594,0,5,75,33,1,fieldSmooth,3
65+,19,0.098716,Hue-0 with Wave-8,,1,0,0.0,0.1001359367572912,high_school,3,male,594,1,1.1,1.9,1,5c1ffe5295f978000173df84,12149,0,6,75,34,2,fieldSmooth,3
65+,20,0.098716,Hue-7 with Wave-4,,1,0,55.21606057317763,0.0605813502454164,high_school,3,male,833,1,1.1,1.9,1,5c1ffe5295f978000173df84,8536,0,5,75,35,1,fieldSmooth,3
65+,20,0.098716,Hue-7 with Wave-4,,1,0,55.21606057317763,0.0416926660569876,high_school,3,male,616,2,1.1,1.9,1,5c1ffe5295f978000173df84,7650,1,1,75,36,2,fieldSmooth,3
65+,21,0.098716,Hue-5 with Wave-1,,1,0,6.338866799913041,0.0997791384375824,high_school,3,male,760,2,1.1,1.9,1,5c1ffe5295f978000173df84,5418,1,2,75,37,1,fieldSmooth,3
65+,21,0.098716,Hue-5 with Wave-1,,0,0,6.338866799913041,0.0719866621245214,high_school,3,male,631,0,1.1,1.9,1,5c1ffe5295f978000173df84,8778,-1,2,75,38,2,fieldSmooth,3
65+,22,0.098716,Hue-3 with Wave-8,,1,0,51.19148717168969,0.0599321844098721,high_school,3,male,850,2,1.1,1.9,1,5c1ffe5295f978000173df84,3480,1,1,75,39,1,fieldSmooth,3
65+,22,0.098716,Hue-3 with Wave-8,,1,0,51.19148717168969,0.1181877887302405,high_school,3,male,599,2,1.1,1.9,1,5c1ffe5295f978000173df84,3144,1,1,75,40,2,fieldSmooth,3
65+,23,0.098716,Hue-3 with Wave-9,,1,0,51.19148717168969,0.0904177554570246,high_school,3,male,814,1,1.1,1.9,1,5c1ffe5295f978000173df84,4452,0,4,75,41,1,fieldSmooth,3
65+,23,0.098716,Hue-3 with Wave-9,,1,0,51.19148717168969,0.0889658045428346,high_school,3,male,633,1,1.1,1.9,1,5c1ffe5295f978000173df84,4706,0,2,75,42,2,fieldSmooth,3
65+,24,0.098716,Hue-0 with Wave-4,,1,0,0.0,0.0723349584920504,high_school,3,male,826,1,1.1,1.9,1,5c1ffe5295f978000173df84,3908,0,2,75,43,1,fieldSmooth,3
65+,24,0.098716,Hue-0 with Wave-4,,1,0,0.0,0.0765678998350558,high_school,3,male,657,1,1.1,1.9,1,5c1ffe5295f978000173df84,5085,0,2,75,44,2,fieldSmooth,3
65+,25,0.098716,Hue-3 with Wave-2,,1,0,51.19148717168969,0.1002097152399655,high_school,3,male,780,1,1.1,1.9,1,5c1ffe5295f978000173df84,6240,0,1,75,45,1,fieldSmooth,3
65+,25,0.098716,Hue-3 with Wave-2,,1,0,51.19148717168969,0.0934224670957024,high_school,3,male,601,2,1.1,1.9,1,5c1ffe5295f978000173df84,9341,1,4,75,46,2,fieldSmooth,3
65+,26,0.098716,Hue-7 with Wave-0,,1,0,55.21606057317763,0.0631178651219314,high_school,3,male,783,1,1.1,1.9,1,5c1ffe5295f978000173df84,8925,0,2,75,47,1,fieldSmooth,3
65+,26,0.098716,Hue-7 with Wave-0,,1,0,55.21606057317763,0.1154821838119612,high_school,3,male,669,1,1.1,1.9,1,5c1ffe5295f978000173df84,2114,0,3,75,48,2,fieldSmooth,3
65+,27,0.098716,Hue-5 with Wave-6,,1,0,6.338866799913041,0.0842250305806992,high_school,3,male,788,1,1.1,1.9,1,5c1ffe5295f978000173df84,12728,0,2,75,49,1,fieldSmooth,3
65+,27,0.098716,Hue-5 with Wave-6,,1,0,6.338866799913041,0.0467336621671589,high_school,3,male,666,1,1.1,1.9,1,5c1ffe5295f978000173df84,5583,0,6,75,50,2,fieldSmooth,3
65+,28,0.098716,Hue-0 with Wave-1,,1,0,0.0,0.0780920606428147,high_school,3,male,772,1,1.1,1.9,1,5c1ffe5295f978000173df84,9948,0,6,75,51,1,fieldSmooth,3
65+,28,0.098716,Hue-0 with Wave-1,,0,0,0.0,0.0770931882769804,high_school,3,male,552,0,1.1,1.9,1,5c1ffe5295f978000173df84,11202,-1,5,75,52,2,fieldSmooth,3
65+,29,0.098716,Hue-5 with Wave-0,,1,0,6.338866799913041,0.0844247652651562,high_school,3,male,822,1,1.1,1.9,1,5c1ffe5295f978000173df84,8792,0,4,75,53,1,fieldSmooth,3
65+,29,0.098716,Hue-5 with Wave-0,,1,0,6.338866799913041,0.0987007567030328,high_school,3,male,612,1,1.1,1.9,1,5c1ffe5295f978000173df84,4903,0,1,75,54,2,fieldSmooth,3
65+,30,0.098716,Hue-0 with Wave-9,,1,0,0.0,0.0766028319163775,high_school,3,male,763,1,1.1,1.9,1,5c1ffe5295f978000173df84,4069,0,3,75,55,1,fieldSmooth,3
65+,30,0.098716,Hue-0 with Wave-9,,1,0,0.0,0.049660819635925,high_school,3,male,650,2,1.1,1.9,1,5c1ffe5295f978000173df84,6872,1,1,75,56,2,fieldSmooth,3
65+,31,0.098716,Hue-5 with Wave-8,,1,0,6.338866799913041,0.0843657627916273,high_school,3,male,727,1,1.1,1.9,1,5c1ffe5295f978000173df84,4027,0,2,75,57,1,fieldSmooth,3
65+,31,0.098716,Hue-5 with Wave-8,,1,0,6.338866799913041,0.1187879001623623,high_school,3,male,634,1,1.1,1.9,1,5c1ffe5295f978000173df84,2825,0,1,75,58,2,fieldSmooth,3
65+,32,0.098716,Hue-3 with Wave-1,,1,0,51.19148717168969,0.0628297927417523,high_school,3,male,855,2,1.1,1.9,1,5c1ffe5295f978000173df84,8309,1,4,75,59,1,fieldSmooth,3
65+,32,0.098716,Hue-3 with Wave-1,,1,0,51.19148717168969,0.0527230462385961,high_school,3,male,681,2,1.1,1.9,1,5c1ffe5295f978000173df84,12223,1,6,75,60,2,fieldSmooth,3
65+,33,0.098716,Hue-3 with Wave-4,,1,0,51.19148717168969,0.1077302580439266,high_school,3,male,859,1,1.1,1.9,1,5c1ffe5295f978000173df84,8321,0,2,75,61,1,fieldSmooth,3
65+,33,0.098716,Hue-3 with Wave-4,,1,0,51.19148717168969,0.0691674121556384,high_school,3,male,668,1,1.1,1.9,1,5c1ffe5295f978000173df84,3081,0,3,75,62,2,fieldSmooth,3
65+,35,0.098716,Hue-5 with Wave-5,,1,0,6.338866799913041,0.0643746447028361,high_school,3,male,848,2,1.1,1.9,1,5c1ffe5295f978000173df84,12290,1,6,75,63,1,fieldSmooth,3
65+,35,0.098716,Hue-5 with Wave-5,,1,0,6.338866799913041,0.0879937063401037,high_school,3,male,624,2,1.1,1.9,1,5c1ffe5295f978000173df84,8387,1,3,75,64,2,fieldSmooth,3
65+,36,0.098716,Hue-5 with Wave-4,,1,0,6.338866799913041,0.0483314134964165,high_school,3,male,850,2,1.1,1.9,1,5c1ffe5295f978000173df84,9843,1,2,75,65,1,fieldSmooth,3
65+,36,0.098716,Hue-5 with Wave-4,,1,0,6.338866799913041,0.070082544947277,high_school,3,male,630,1,1.1,1.9,1,5c1ffe5295f978000173df84,12504,0,4,75,66,2,fieldSmooth,3
65+,37,0.098716,Hue-3 with Wave-5,,1,0,51.19148717168969,0.0892996222719349,high_school,3,male,843,1,1.1,1.9,1,5c1ffe5295f978000173df84,7677,0,4,75,67,1,fieldSmooth,3
65+,37,0.098716,Hue-3 with Wave-5,,1,0,51.19148717168969,0.061930957631356,high_school,3,male,658,1,1.1,1.9,1,5c1ffe5295f978000173df84,5229,0,2,75,68,2,fieldSmooth,3
65+,38,0.098716,Hue-0 with Wave-7,,1,0,0.0,0.0651269996907679,high_school,3,male,797,1,1.1,1.9,1,5c1ffe5295f978000173df84,6370,0,4,75,69,1,fieldSmooth,3
65+,38,0.098716,Hue-0 with Wave-7,,1,0,0.0,0.0946885082926536,high_school,3,male,618,1,1.1,1.9,1,5c1ffe5295f978000173df84,5839,0,6,75,70,2,fieldSmooth,3
65+,39,0.098716,Hue-7 with Wave-9,,1,0,55.21606057317763,0.1067053063292222,high_school,3,male,860,2,1.1,1.9,1,5c1ffe5295f978000173df84,8804,1,4,75,71,1,fieldSmooth,3
65+,39,0.098716,Hue-7 with Wave-9,,1,0,55.21606057317763,0.0562930200590377,high_school,3,male,662,1,1.1,1.9,1,5c1ffe5295f978000173df84,4617,0,6,75,72,2,fieldSmooth,3
65+,40,0.098716,Hue-7 with Wave-6,,1,0,55.21606057317763,0.0548013444321342,high_school,3,male,889,1,1.1,1.9,1,5c1ffe5295f978000173df84,5822,0,3,75,73,1,fieldSmooth,3
65+,40,0.098716,Hue-7 with Wave-6,,1,0,55.21606057317763,0.0687680756112704,high_school,3,male,740,1,1.1,1.9,1,5c1ffe5295f978000173df84,6274,0,3,75,74,2,fieldSmooth,3
65+,41,0.098716,Hue-3 with Wave-0,,1,0,51.19148717168969,0.0672802089664143,high_school,3,male,617,1,1.1,1.9,1,5c1ffe5295f978000173df84,4184,0,4,75,75,1,fieldSmooth,3
65+,41,0.098716,Hue-3 with Wave-0,,0,0,51.19148717168969,0.0786464444634995,high_school,3,male,579,0,1.1,1.9,1,5c1ffe5295f978000173df84,8693,-1,5,75,76,2,fieldSmooth,3
65+,42,0.098716,Hue-3 with Wave-6,,1,0,51.19148717168969,0.0661919574992745,high_school,3,male,806,2,1.1,1.9,1,5c1ffe5295f978000173df84,7031,1,3,75,77,1,fieldSmooth,3
65+,42,0.098716,Hue-3 with Wave-6,,1,0,51.19148717168969,0.0463159949091953,high_school,3,male,621,1,1.1,1.9,1,5c1ffe5295f978000173df84,10094,0,2,75,78,2,fieldSmooth,3
,1,0.098716,Hue-0 with Wave-8,,1,0,0.0,0.0740954155353589,,2,,659,2,1.1,1.9,1,63e5872c841f61b1309e1d18,13891,1,5,78,1,1,fieldSmooth,4
,1,0.098716,Hue-0 with Wave-8,,1,0,0.0,0.1004294181080101,,2,,557,2,1.1,1.9,1,63e5872c841f61b1309e1d18,4555,1,6,78,2,2,fieldSmooth,4
,2,0.098716,Hue-5 with Wave-2,,1,0,58.04611872476544,0.0880675989568411,,2,,777,1,1.1,1.9,1,63e5872c841f61b1309e1d18,11944,0,5,78,3,1,fieldSmooth,4
,2,0.098716,Hue-5 with Wave-2,,1,0,58.04611872476544,0.0402041006721991,,2,,648,2,1.1,1.9,1,63e5872c841f61b1309e1d18,15717,1,4,78,4,2,fieldSmooth,4
,3,0.098716,Hue-5 with Wave-8,,1,0,58.04611872476544,0.0819497587057588,,2,,787,2,1.1,1.9,1,63e5872c841f61b1309e1d18,12149,1,5,78,5,1,fieldSmooth,4
,3,0.098716,Hue-5 with Wave-8,,1,0,58.04611872476544,0.0286365184885878,,2,,650,1,1.1,1.9,1,63e5872c841f61b1309e1d18,38026,0,2,78,6,2,fieldSmooth,4
,4,0.098716,Hue-7 with Wave-5,,1,0,46.23697306705098,0.0672206640808119,,2,,655,1,1.1,1.9,1,63e5872c841f61b1309e1d18,5510,0,1,78,7,1,fieldSmooth,4
,4,0.098716,Hue-7 with Wave-5,,1,0,46.23697306705098,0.057683671230256,,2,,635,1,1.1,1.9,1,63e5872c841f61b1309e1d18,6519,0,6,78,8,2,fieldSmooth,4
,5,0.098716,Hue-5 with Wave-1,,1,0,58.04611872476544,0.1120554535321714,,2,,670,2,1.1,1.9,1,63e5872c841f61b1309e1d18,9382,1,5,78,9,1,fieldSmooth,4
,5,0.098716,Hue-5 with Wave-1,,1,0,58.04611872476544,0.0970991307540736,,2,,583,2,1.1,1.9,1,63e5872c841f61b1309e1d18,13919,1,4,78,10,2,fieldSmooth,4
,6,0.098716,Hue-3 with Wave-8,,1,0,2.533162746773119,0.0867987646566191,,2,,797,1,1.1,1.9,1,63e5872c841f61b1309e1d18,12318,0,4,78,11,1,fieldSmooth,4
,6,0.098716,Hue-3 with Wave-8,,1,0,2.533162746773119,0.1059525209334199,,2,,597,1,1.1,1.9,1,63e5872c841f61b1309e1d18,27175,0,5,78,12,2,fieldSmooth,4
,7,0.098716,Hue-0 with Wave-3,,1,0,0.0,0.0456953180580723,,2,,801,2,1.1,1.9,1,63e5872c841f61b1309e1d18,5942,1,1,78,13,1,fieldSmooth,4
,7,0.098716,Hue-0 with Wave-3,,1,0,0.0,0.1071424939001296,,2,,590,2,1.1,1.9,1,63e5872c841f61b1309e1d18,29193,1,4,78,14,2,fieldSmooth,4
,8,0.098716,Hue-0 with Wave-7,,1,0,0.0,0.0705519466390392,,2,,720,2,1.1,1.9,1,63e5872c841f61b1309e1d18,15442,1,5,78,15,1,fieldSmooth,4
,8,0.098716,Hue-0 with Wave-7,,1,0,0.0,0.0718336800847194,,2,,604,2,1.1,1.9,1,63e5872c841f61b1309e1d18,7062,1,1,78,16,2,fieldSmooth,4
,9,0.098716,Hue-3 with Wave-9,,1,0,2.533162746773119,0.0673679373430192,,2,,700,1,1.1,1.9,1,63e5872c841f61b1309e1d18,3173,0,5,78,17,1,fieldSmooth,4
,9,0.098716,Hue-3 with Wave-9,,1,0,2.533162746773119,0.1080275082093421,,2,,589,1,1.1,1.9,1,63e5872c841f61b1309e1d18,12761,0,4,78,18,2,fieldSmooth,4
,10,0.098716,Hue-3 with Wave-1,,1,0,2.533162746773119,0.0840871588350259,,2,,634,2,1.1,1.9,1,63e5872c841f61b1309e1d18,5587,1,4,78,19,1,fieldSmooth,4
,10,0.098716,Hue-3 with Wave-1,,1,0,2.533162746773119,0.1138596270674343,,2,,565,2,1.1,1.9,1,63e5872c841f61b1309e1d18,5113,1,4,78,20,2,fieldSmooth,4
,11,0.098716,Hue-5 with Wave-7,,1,0,58.04611872476544,0.0929750549648809,,2,,708,1,1.1,1.9,1,63e5872c841f61b1309e1d18,28253,0,2,78,21,1,fieldSmooth,4
,11,0.098716,Hue-5 with Wave-7,,1,0,58.04611872476544,0.1533214047310082,,2,,581,1,1.1,1.9,1,63e5872c841f61b1309e1d18,4841,0,4,78,22,2,fieldSmooth,4
,12,0.098716,Hue-3 with Wave-4,,1,0,2.533162746773119,0.0884676610268071,,2,,757,2,1.1,1.9,1,63e5872c841f61b1309e1d18,29961,1,6,78,23,1,fieldSmooth,4
,12,0.098716,Hue-3 with Wave-4,,1,0,2.533162746773119,0.0561239609834198,,2,,567,2,1.1,1.9,1,63e5872c841f61b1309e1d18,44705,1,3,78,24,2,fieldSmooth,4
,13,0.098716,Hue-3 with Wave-3,,1,0,2.533162746773119,0.0693247179363021,,2,,707,1,1.1,1.9,1,63e5872c841f61b1309e1d18,18766,0,3,78,25,1,fieldSmooth,4
,13,0.098716,Hue-3 with Wave-3,,1,0,2.533162746773119,0.0757349817538929,,2,,596,1,1.1,1.9,1,63e5872c841f61b1309e1d18,11497,0,2,78,26,2,fieldSmooth,4
,14,0.098716,Hue-3 with Wave-7,,1,0,2.533162746773119,0.0635194181873269,,2,,810,1,1.1,1.9,1,63e5872c841f61b1309e1d18,8395,0,2,78,27,1,fieldSmooth,4
,14,0.098716,Hue-3 with Wave-7,,1,0,2.533162746773119,0.0956536077197476,,2,,657,1,1.1,1.9,1,63e5872c841f61b1309e1d18,21506,0,1,78,28,2,fieldSmooth,4
,16,0.098716,Hue-5 with Wave-6,,1,0,58.04611872476544,0.0974445645064513,,2,,760,2,1.1,1.9,1,63e5872c841f61b1309e1d18,11305,1,2,78,29,1,fieldSmooth,4
,16,0.098716,Hue-5 with Wave-6,,1,0,58.04611872476544,0.081634136990396,,2,,616,1,1.1,1.9,1,63e5872c841f61b1309e1d18,5110,0,1,78,30,2,fieldSmooth,4
,17,0.098716,Hue-0 with Wave-4,,1,0,0.0,0.1348961842697194,,2,,634,1,1.1,1.9,1,63e5872c841f61b1309e1d18,8602,0,3,78,31,1,fieldSmooth,4
,17,0.098716,Hue-0 with Wave-4,,1,0,0.0,0.0653765549513351,,2,,684,1,1.1,1.9,1,63e5872c841f61b1309e1d18,44861,0,5,78,32,2,fieldSmooth,4
,18,0.098716,Hue-5 with Wave-4,,1,0,58.04611872476544,0.0939667545991772,,2,,747,2,1.1,1.9,1,63e5872c841f61b1309e1d18,4232,1,3,78,33,1,fieldSmooth,4
,18,0.098716,Hue-5 with Wave-4,,1,0,58.04611872476544,0.0725321636000042,,2,,629,1,1.1,1.9,1,63e5872c841f61b1309e1d18,35238,0,5,78,34,2,fieldSmooth,4
,20,0.098716,Hue-7 with Wave-9,,1,0,46.23697306705098,0.1279461992734837,,2,,664,1,1.1,1.9,1,63e5872c841f61b1309e1d18,6084,0,6,78,35,1,fieldSmooth,4
,20,0.098716,Hue-7 with Wave-9,,1,0,46.23697306705098,0.0609556140572373,,2,,645,1,1.1,1.9,1,63e5872c841f61b1309e1d18,14624,0,3,78,36,2,fieldSmooth,4
,21,0.098716,Hue-0 with Wave-2,,1,0,0.0,0.1140670090098036,,2,,727,2,1.1,1.9,1,63e5872c841f61b1309e1d18,19177,1,3,78,37,1,fieldSmooth,4
,21,0.098716,Hue-0 with Wave-2,,1,0,0.0,0.0851761314781323,,2,,594,1,1.1,1.9,1,63e5872c841f61b1309e1d18,4907,0,3,78,38,2,fieldSmooth,4
,22,0.098716,Hue-5 with Wave-5,,1,0,58.04611872476544,0.1067514298330336,,2,,778,1,1.1,1.9,1,63e5872c841f61b1309e1d18,3647,0,3,78,39,1,fieldSmooth,4
,22,0.098716,Hue-5 with Wave-5,,1,0,58.04611872476544,0.0652910510960119,,2,,597,1,1.1,1.9,1,63e5872c841f61b1309e1d18,14790,0,4,78,40,2,fieldSmooth,4
,23,0.098716,Hue-5 with Wave-0,,1,0,58.04611872476544,0.0756733322871745,,2,,747,2,1.1,1.9,1,63e5872c841f61b1309e1d18,15419,1,1,78,41,1,fieldSmooth,4
,23,0.098716,Hue-5 with Wave-0,,1,0,58.04611872476544,0.113674829050097,,2,,574,1,1.1,1.9,1,63e5872c841f61b1309e1d18,11510,0,5,78,42,2,fieldSmooth,4
,24,0.098716,Hue-7 with Wave-6,,1,0,46.23697306705098,0.1073436138294541,,2,,585,1,1.1,1.9,1,63e5872c841f61b1309e1d18,10624,0,6,78,43,1,fieldSmooth,4
,24,0.098716,Hue-7 with Wave-6,,1,0,46.23697306705098,0.0806470729073417,,2,,668,1,1.1,1.9,1,63e5872c841f61b1309e1d18,5773,0,2,78,44,2,fieldSmooth,4
,25,0.098716,Hue-3 with Wave-5,,1,0,2.533162746773119,0.0933360769729996,,2,,735,1,1.1,1.9,1,63e5872c841f61b1309e1d18,6743,0,3,78,45,1,fieldSmooth,4
,25,0.098716,Hue-3 with Wave-5,,1,0,2.533162746773119,0.0566412668784905,,2,,640,2,1.1,1.9,1,63e5872c841f61b1309e1d18,6510,1,6,78,46,2,fieldSmooth,4
,26,0.098716,Hue-3 with Wave-6,,1,0,2.533162746773119,0.0785870624877941,,2,,773,1,1.1,1.9,1,63e5872c841f61b1309e1d18,28885,0,3,78,47,1,fieldSmooth,4
,26,0.098716,Hue-3 with Wave-6,,1,0,2.533162746773119,0.0526368694477773,,2,,616,1,1.1,1.9,1,63e5872c841f61b1309e1d18,9062,0,6,78,48,2,fieldSmooth,4
,27,0.098716,Hue-5 with Wave-9,,1,0,58.04611872476544,0.0419412807348664,,2,,818,1,1.1,1.9,1,63e5872c841f61b1309e1d18,13832,0,2,78,49,1,fieldSmooth,4
,27,0.098716,Hue-5 with Wave-9,,1,0,58.04611872476544,0.0664958406367114,,2,,669,2,1.1,1.9,1,63e5872c841f61b1309e1d18,9188,1,6,78,50,2,fieldSmooth,4
,28,0.098716,Hue-3 with Wave-0,,1,0,2.533162746773119,0.0685070337402601,,2,,625,1,1.1,1.9,1,63e5872c841f61b1309e1d18,9555,0,2,78,51,1,fieldSmooth,4
,28,0.098716,Hue-3 with Wave-0,,1,0,2.533162746773119,0.0667464118570168,,2,,629,1,1.1,1.9,1,63e5872c841f61b1309e1d18,23331,0,1,78,52,2,fieldSmooth,4
,29,0.098716,Hue-7 with Wave-8,,1,0,46.23697306705098,0.0975876453432677,,2,,767,1,1.1,1.9,1,63e5872c841f61b1309e1d18,8906,0,6,78,53,1,fieldSmooth,4
,29,0.098716,Hue-7 with Wave-8,,1,0,46.23697306705098,0.1489420422019697,,2,,581,1,1.1,1.9,1,63e5872c841f61b1309e1d18,17004,0,2,78,54,2,fieldSmooth,4
,30,0.098716,Hue-0 with Wave-5,,1,0,0.0,0.0654923372799657,,2,,798,1,1.1,1.9,1,63e5872c841f61b1309e1d18,14616,0,5,78,55,1,fieldSmooth,4
,30,0.098716,Hue-0 with Wave-5,,1,0,0.0,0.0481274712613307,,2,,604,2,1.1,1.9,1,63e5872c841f61b1309e1d18,9624,1,3,78,56,2,fieldSmooth,4
,31,0.098716,Hue-5 with Wave-3,,1,0,58.04611872476544,0.0768907249968546,,2,,746,2,1.1,1.9,1,63e5872c841f61b1309e1d18,8595,1,2,78,57,1,fieldSmooth,4
,31,0.098716,Hue-5 with Wave-3,,1,0,58.04611872476544,0.1105881657145567,,2,,647,1,1.1,1.9,1,63e5872c841f61b1309e1d18,15953,0,1,78,58,2,fieldSmooth,4
,32,0.098716,Hue-0 with Wave-9,,1,0,0.0,0.0547527728968102,,2,,773,1,1.1,1.9,1,63e5872c841f61b1309e1d18,9990,0,1,78,59,1,fieldSmooth,4
,32,0.098716,Hue-0 with Wave-9,,1,0,0.0,0.1062304536108839,,2,,542,1,1.1,1.9,1,63e5872c841f61b1309e1d18,10496,0,6,78,60,2,fieldSmooth,4
,33,0.098716,Hue-7 with Wave-4,,1,0,46.23697306705098,0.0835098375121036,,2,,723,2,1.1,1.9,1,63e5872c841f61b1309e1d18,37919,1,3,78,61,1,fieldSmooth,4
,33,0.098716,Hue-7 with Wave-4,,1,0,46.23697306705098,0.0883093949400121,,2,,619,1,1.1,1.9,1,63e5872c841f61b1309e1d18,3320,0,1,78,62,2,fieldSmooth,4
,34,0.098716,Hue-3 with Wave-2,,1,0,2.533162746773119,0.1206705780842759,,2,,715,2,1.1,1.9,1,63e5872c841f61b1309e1d18,5338,1,2,78,63,1,fieldSmooth,4
,34,0.098716,Hue-3 with Wave-2,,1,0,2.533162746773119,0.0596413945170824,,2,,618,1,1.1,1.9,1,63e5872c841f61b1309e1d18,45574,0,2,78,64,2,fieldSmooth,4
,36,0.098716,Hue-7 with Wave-2,,1,0,46.23697306705098,0.0502054204336147,,2,,635,2,1.1,1.9,1,63e5872c841f61b1309e1d18,33869,1,5,78,65,1,fieldSmooth,4
,36,0.098716,Hue-7 with Wave-2,,1,0,46.23697306705098,0.0950905913977543,,2,,616,2,1.1,1.9,1,63e5872c841f61b1309e1d18,3731,1,1,78,66,2,fieldSmooth,4
,37,0.098716,Hue-7 with Wave-3,,1,0,46.23697306705098,0.0543365526361323,,2,,756,2,1.1,1.9,1,63e5872c841f61b1309e1d18,10385,1,3,78,67,1,fieldSmooth,4
,37,0.098716,Hue-7 with Wave-3,,1,0,46.23697306705098,0.1332461575371226,,2,,575,1,1.1,1.9,1,63e5872c841f61b1309e1d18,39923,0,5,78,68,2,fieldSmooth,4
,38,0.098716,Hue-7 with Wave-1,,1,0,46.23697306705098,0.0691229312900422,,2,,768,1,1.1,1.9,1,63e5872c841f61b1309e1d18,12518,0,6,78,69,1,fieldSmooth,4
,38,0.098716,Hue-7 with Wave-1,,1,0,46.23697306705098,0.0811541850244293,,2,,604,1,1.1,1.9,1,63e5872c841f61b1309e1d18,10072,0,3,78,70,2,fieldSmooth,4
,39,0.098716,Hue-7 with Wave-0,,1,0,46.23697306705098,0.0437874373218254,,2,,782,1,1.1,1.9,1,63e5872c841f61b1309e1d18,11660,0,6,78,71,1,fieldSmooth,4
,39,0.098716,Hue-7 with Wave-0,,1,0,46.23697306705098,0.055130071563214,,2,,616,1,1.1,1.9,1,63e5872c841f61b1309e1d18,6028,0,1,78,72,2,fieldSmooth,4
,40,0.098716,Hue-0 with Wave-6,,1,0,0.0,0.1513848014829777,,2,,729,1,1.1,1.9,1,63e5872c841f61b1309e1d18,11000,0,2,78,73,1,fieldSmooth,4
,40,0.098716,Hue-0 with Wave-6,,1,0,0.0,0.0852285782468078,,2,,613,1,1.1,1.9,1,63e5872c841f61b1309e1d18,6923,0,4,78,74,2,fieldSmooth,4
,41,0.098716,Hue-7 with Wave-7,,1,0,46.23697306705098,0.0878962888175405,,2,,724,1,1.1,1.9,1,63e5872c841f61b1309e1d18,4821,0,1,78,75,1,fieldSmooth,4
,41,0.098716,Hue-7 with Wave-7,,1,0,46.23697306705098,0.0518414611243024,,2,,619,1,1.1,1.9,1,63e5872c841f61b1309e1d18,20665,0,1,78,76,2,fieldSmooth,4
,42,0.098716,Hue-0 with Wave-1,,1,0,0.0,0.0799727433081056,,2,,740,2,1.1,1.9,1,63e5872c841f61b1309e1d18,4102,1,3,78,77,1,fieldSmooth,4
,42,0.098716,Hue-0 with Wave-1,,1,0,0.0,0.0994050636157875,,2,,571,2,1.1,1.9,1,63e5872c841f61b1309e1d18,4224,1,3,78,78,2,fieldSmooth,4
,1,0.098716,Hue-3 with Wave-3,,1,0,44.73369780893667,0.0370279443626846,,2,,905,2,1.1,1.9,1,646774e0f86825ab62c37581,103549,1,3,46,1,1,fieldSmooth,5
,1,0.098716,Hue-3 with Wave-3,,1,0,44.73369780893667,0.0700334951783791,,2,,945,2,1.1,1.9,1,646774e0f86825ab62c37581,46823,1,5,46,2,2,fieldSmooth,5
,2,0.098716,Hue-7 with Wave-0,,1,0,56.88150269999558,0.0714429598064921,,2,,900,1,1.1,1.9,1,646774e0f86825ab62c37581,11332,0,1,46,3,1,fieldSmooth,5
,2,0.098716,Hue-7 with Wave-0,,1,0,56.88150269999558,0.0871988919443761,,2,,866,1,1.1,1.9,1,646774e0f86825ab62c37581,6645,0,4,46,4,2,fieldSmooth,5
,3,0.098716,Hue-7 with Wave-2,,1,0,56.88150269999558,0.0912226020892301,,2,,1095,2,1.1,1.9,1,646774e0f86825ab62c37581,8369,1,3,46,5,1,fieldSmooth,5
,3,0.098716,Hue-7 with Wave-2,,1,0,56.88150269999558,0.091172617187633,,2,,811,2,1.1,1.9,1,646774e0f86825ab62c37581,5453,1,2,46,6,2,fieldSmooth,5
,4,0.098716,Hue-5 with Wave-7,,1,0,27.949694569807928,0.0602204535721998,,2,,1276,2,1.1,1.9,1,646774e0f86825ab62c37581,12525,1,6,46,7,1,fieldSmooth,5
,4,0.098716,Hue-5 with Wave-7,,1,0,27.949694569807928,0.1165621393114343,,2,,753,1,1.1,1.9,1,646774e0f86825ab62c37581,7182,0,5,46,8,2,fieldSmooth,5
,5,0.098716,Hue-3 with Wave-1,,1,0,44.73369780893667,0.0705380922215574,,2,,1039,2,1.1,1.9,1,646774e0f86825ab62c37581,9199,1,3,46,9,1,fieldSmooth,5
,5,0.098716,Hue-3 with Wave-1,,1,0,44.73369780893667,0.1121151144666191,,2,,888,2,1.1,1.9,1,646774e0f86825ab62c37581,5552,1,2,46,10,2,fieldSmooth,5
,6,0.098716,Hue-0 with Wave-4,,1,0,0.0,0.0947566095581474,,2,,1013,2,1.1,1.9,1,646774e0f86825ab62c37581,11373,1,2,46,11,1,fieldSmooth,5
,6,0.098716,Hue-0 with Wave-4,,1,0,0.0,0.1061542222354356,,2,,805,1,1.1,1.9,1,646774e0f86825ab62c37581,18418,0,6,46,12,2,fieldSmooth,5
,7,0.098716,Hue-7 with Wave-5,,1,0,56.88150269999558,0.056247974548423,,2,,1019,2,1.1,1.9,1,646774e0f86825ab62c37581,8201,1,4,46,13,1,fieldSmooth,5
,7,0.098716,Hue-7 with Wave-5,,1,0,56.88150269999558,0.0716096256893073,,2,,963,1,1.1,1.9,1,646774e0f86825ab62c37581,8615,0,3,46,14,2,fieldSmooth,5
,8,0.098716,Hue-3 with Wave-8,,1,0,44.73369780893667,0.0776137965210659,,2,,999,2,1.1,1.9,1,646774e0f86825ab62c37581,17135,1,3,46,15,1,fieldSmooth,5
,8,0.098716,Hue-3 with Wave-8,,1,0,44.73369780893667,0.0611924044822246,,2,,862,1,1.1,1.9,1,646774e0f86825ab62c37581,4942,0,1,46,16,2,fieldSmooth,5
,9,0.098716,Hue-5 with Wave-6,,1,0,27.949694569807928,0.0346546941499937,,2,,1150,2,1.1,1.9,1,646774e0f86825ab62c37581,15357,1,2,46,17,1,fieldSmooth,5
,9,0.098716,Hue-5 with Wave-6,,1,0,27.949694569807928,0.093450502067983,,2,,935,1,1.1,1.9,1,646774e0f86825ab62c37581,5683,0,1,46,18,2,fieldSmooth,5
,10,0.098716,Hue-5 with Wave-0,,1,0,27.949694569807928,0.1016505415377305,,2,,940,1,1.1,1.9,1,646774e0f86825ab62c37581,12572,0,4,46,19,1,fieldSmooth,5
,10,0.098716,Hue-5 with Wave-0,,1,0,27.949694569807928,0.0727574011877378,,2,,844,1,1.1,1.9,1,646774e0f86825ab62c37581,14931,0,2,46,20,2,fieldSmooth,5
,11,0.098716,Hue-5 with Wave-2,,1,0,27.949694569807928,0.0811502680855765,,2,,1028,2,1.1,1.9,1,646774e0f86825ab62c37581,16402,1,3,46,21,1,fieldSmooth,5
,11,0.098716,Hue-5 with Wave-2,,1,0,27.949694569807928,0.0923325347333026,,2,,941,2,1.1,1.9,1,646774e0f86825ab62c37581,4643,1,2,46,22,2,fieldSmooth,5
,12,0.098716,Hue-7 with Wave-7,,1,0,56.88150269999558,0.10235811043931,,2,,1460,2,1.1,1.9,1,646774e0f86825ab62c37581,4115,1,2,46,23,1,fieldSmooth,5
,12,0.098716,Hue-7 with Wave-7,,1,0,56.88150269999558,0.0955682408148146,,2,,1256,1,1.1,1.9,1,646774e0f86825ab62c37581,7437,0,5,46,24,2,fieldSmooth,5
,13,0.098716,Hue-0 with Wave-1,,1,0,0.0,0.1673020048451755,,2,,1919,2,1.1,1.9,1,646774e0f86825ab62c37581,7079,1,6,46,25,1,fieldSmooth,5
,13,0.098716,Hue-0 with Wave-1,,1,0,0.0,0.0464536408686285,,2,,1658,2,1.1,1.9,1,646774e0f86825ab62c37581,6448,1,6,46,26,2,fieldSmooth,5
,14,0.098716,Hue-7 with Wave-4,,1,0,56.88150269999558,0.0469266951324289,,2,,2443,2,1.1,1.9,1,646774e0f86825ab62c37581,9107,1,3,46,27,1,fieldSmooth,5
,14,0.098716,Hue-7 with Wave-4,,1,0,56.88150269999558,0.0875044355754133,,2,,1271,2,1.1,1.9,1,646774e0f86825ab62c37581,21786,1,6,46,28,2,fieldSmooth,5
,15,0.098716,Hue-3 with Wave-4,,1,0,44.73369780893667,0.0654768313211732,,2,,2328,2,1.1,1.9,1,646774e0f86825ab62c37581,39914,1,3,46,29,1,fieldSmooth,5
,15,0.098716,Hue-3 with Wave-4,,1,0,44.73369780893667,0.0741351797499412,,2,,1372,1,1.1,1.9,1,646774e0f86825ab62c37581,31822,0,1,46,30,2,fieldSmooth,5
,16,0.098716,Hue-0 with Wave-9,,1,0,0.0,0.0601782807817066,,2,,2285,1,1.1,1.9,1,646774e0f86825ab62c37581,28133,0,2,46,31,1,fieldSmooth,5
,16,0.098716,Hue-0 with Wave-9,,1,0,0.0,0.1074125734903703,,2,,1129,1,1.1,1.9,1,646774e0f86825ab62c37581,25695,0,3,46,32,2,fieldSmooth,5
,17,0.098716,Hue-5 with Wave-3,,1,0,27.949694569807928,0.0561109430451305,,2,,1626,2,1.1,1.9,1,646774e0f86825ab62c37581,30381,1,1,46,33,1,fieldSmooth,5
,17,0.098716,Hue-5 with Wave-3,,1,0,27.949694569807928,0.0804554727423884,,2,,937,1,1.1,1.9,1,646774e0f86825ab62c37581,31276,0,1,46,34,2,fieldSmooth,5
,18,0.098716,Hue-0 with Wave-8,,1,0,0.0,0.0589686712331351,,2,,1746,2,1.1,1.9,1,646774e0f86825ab62c37581,18323,1,6,46,35,1,fieldSmooth,5
,18,0.098716,Hue-0 with Wave-8,,1,0,0.0,0.1131820888057613,,2,,941,1,1.1,1.9,1,646774e0f86825ab62c37581,72074,0,3,46,36,2,fieldSmooth,5
,19,0.098716,Hue-7 with Wave-8,,0,0,56.88150269999558,0.1056035726192985,,2,,1150,0,1.1,1.9,1,646774e0f86825ab62c37581,48072,-1,6,46,37,1,fieldSmooth,5
,19,0.098716,Hue-7 with Wave-8,,0,0,56.88150269999558,0.0403857662624596,,2,,1030,0,1.1,1.9,1,646774e0f86825ab62c37581,29918,-1,6,46,38,2,fieldSmooth,5
,20,0.098716,Hue-7 with Wave-3,,0,0,56.88150269999558,0.0616666114118053,,2,,1531,0,1.1,1.9,1,646774e0f86825ab62c37581,14279,-1,6,46,39,1,fieldSmooth,5
,20,0.098716,Hue-7 with Wave-3,,0,0,56.88150269999558,0.121956863796623,,2,,1066,0,1.1,1.9,1,646774e0f86825ab62c37581,25196,-1,2,46,40,2,fieldSmooth,5
,21,0.098716,Hue-5 with Wave-1,,0,0,27.949694569807928,0.0825835129797125,,2,,1954,0,1.1,1.9,1,646774e0f86825ab62c37581,27078,-1,6,46,41,1,fieldSmooth,5
,21,0.098716,Hue-5 with Wave-1,,0,0,27.949694569807928,0.1040185796664674,,2,,857,0,1.1,1.9,1,646774e0f86825ab62c37581,21863,-1,2,46,42,2,fieldSmooth,5
,22,0.098716,Hue-0 with Wave-3,,0,0,0.0,0.0593450229338521,,2,,1314,0,1.1,1.9,1,646774e0f86825ab62c37581,15639,-1,2,46,43,1,fieldSmooth,5
,22,0.098716,Hue-0 with Wave-3,,0,0,0.0,0.1187977425533791,,2,,1061,0,1.1,1.9,1,646774e0f86825ab62c37581,23042,-1,3,46,44,2,fieldSmooth,5
,23,0.098716,Hue-3 with Wave-0,,1,0,44.73369780893667,0.1628298361098129,,2,,1696,2,1.1,1.9,1,646774e0f86825ab62c37581,16148,1,2,46,45,1,fieldSmooth,5
,23,0.098716,Hue-3 with Wave-0,,0,0,44.73369780893667,0.1049437466248318,,2,,1239,0,1.1,1.9,1,646774e0f86825ab62c37581,10664,-1,2,46,46,2,fieldSmooth,5
,25,0.098716,Hue-0 with Wave-5,,1,0,0.0,0.0506525331412663,,2,,977,1,1.1,1.9,1,646774e0f86825ab62c37581,20880,0,3,46,47,1,fieldSmooth,5
,25,0.098716,Hue-0 with Wave-5,,0,0,0.0,0.0597016036897567,,2,,962,0,1.1,1.9,1,646774e0f86825ab62c37581,14607,-1,5,46,48,2,fieldSmooth,5
,27,0.098716,Hue-3 with Wave-9,,0,0,44.73369780893667,0.0682227119281508,,2,,1050,0,1.1,1.9,1,646774e0f86825ab62c37581,1586,-1,2,46,49,1,fieldSmooth,5
,27,0.098716,Hue-3 with Wave-9,,1,0,44.73369780893667,0.0609044861758464,,2,,887,2,1.1,1.9,1,646774e0f86825ab62c37581,1755,1,4,46,50,2,fieldSmooth,5
,28,0.098716,Hue-3 with Wave-7,,0,0,44.73369780893667,0.0728508451754437,,2,,1187,0,1.1,1.9,1,646774e0f86825ab62c37581,1648,-1,1,46,51,1,fieldSmooth,5
,28,0.098716,Hue-3 with Wave-7,,0,0,44.73369780893667,0.0601115962870299,,2,,812,0,1.1,1.9,1,646774e0f86825ab62c37581,1845,-1,6,46,52,2,fieldSmooth,5
,29,0.098716,Hue-7 with Wave-6,,1,0,56.88150269999558,0.1004394790502616,,2,,1073,1,1.1,1.9,1,646774e0f86825ab62c37581,1469,0,2,46,53,1,fieldSmooth,5
,29,0.098716,Hue-7 with Wave-6,,0,0,56.88150269999558,0.1157622142197717,,2,,738,0,1.1,1.9,1,646774e0f86825ab62c37581,1605,-1,4,46,54,2,fieldSmooth,5
,30,0.098716,Hue-7 with Wave-9,,0,0,56.88150269999558,0.0853573490877782,,2,,1120,0,1.1,1.9,1,646774e0f86825ab62c37581,1314,-1,3,46,55,1,fieldSmooth,5
,30,0.098716,Hue-7 with Wave-9,,0,0,56.88150269999558,0.0998515860732909,,2,,984,0,1.1,1.9,1,646774e0f86825ab62c37581,1531,-1,5,46,56,2,fieldSmooth,5
,31,0.098716,Hue-0 with Wave-2,,0,0,0.0,0.0670468684960301,,2,,1224,0,1.1,1.9,1,646774e0f86825ab62c37581,1142,-1,1,46,57,1,fieldSmooth,5
,31,0.098716,Hue-0 with Wave-2,,0,0,0.0,0.15529116897571,,2,,761,0,1.1,1.9,1,646774e0f86825ab62c37581,1313,-1,2,46,58,2,fieldSmooth,5
,32,0.098716,Hue-0 with Wave-6,,0,0,0.0,0.0454181041679768,,2,,1139,0,1.1,1.9,1,646774e0f86825ab62c37581,1259,-1,4,46,59,1,fieldSmooth,5
,32,0.098716,Hue-0 with Wave-6,,0,0,0.0,0.092688194307037,,2,,786,0,1.1,1.9,1,646774e0f86825ab62c37581,1441,-1,2,46,60,2,fieldSmooth,5
,33,0.098716,Hue-5 with Wave-5,,1,0,27.949694569807928,0.0829247721723127,,2,,1035,2,1.1,1.9,1,646774e0f86825ab62c37581,1283,1,2,46,61,1,fieldSmooth,5
,33,0.098716,Hue-5 with Wave-5,,0,0,27.949694569807928,0.0665378538975405,,2,,928,0,1.1,1.9,1,646774e0f86825ab62c37581,1396,-1,5,46,62,2,fieldSmooth,5
,34,0.098716,Hue-5 with Wave-8,,1,0,27.949694569807928,0.0577124084082709,,2,,1074,2,1.1,1.9,1,646774e0f86825ab62c37581,1267,1,3,46,63,1,fieldSmooth,5
,34,0.098716,Hue-5 with Wave-8,,0,0,27.949694569807928,0.0706793702199227,,2,,987,0,1.1,1.9,1,646774e0f86825ab62c37581,1393,-1,4,46,64,2,fieldSmooth,5
,35,0.098716,Hue-5 with Wave-9,,1,0,27.949694569807928,0.0635953870998019,,2,,1461,1,1.1,1.9,1,646774e0f86825ab62c37581,1286,0,1,46,65,1,fieldSmooth,5
,35,0.098716,Hue-5 with Wave-9,,1,0,27.949694569807928,0.0741653155653465,,2,,1108,1,1.1,1.9,1,646774e0f86825ab62c37581,1465,0,2,46,66,2,fieldSmooth,5
,37,0.098716,Hue-0 with Wave-7,,0,0,0.0,0.0808962757525096,,2,,1009,0,1.1,1.9,1,646774e0f86825ab62c37581,1702,-1,1,46,67,1,fieldSmooth,5
,37,0.098716,Hue-0 with Wave-7,,0,0,0.0,0.0899725860307333,,2,,813,0,1.1,1.9,1,646774e0f86825ab62c37581,1644,-1,3,46,68,2,fieldSmooth,5
,38,0.098716,Hue-3 with Wave-2,,0,0,44.73369780893667,0.0901846747360792,,2,,1166,0,1.1,1.9,1,646774e0f86825ab62c37581,1404,-1,4,46,69,1,fieldSmooth,5
,38,0.098716,Hue-3 with Wave-2,,0,0,44.73369780893667,0.0708306924420621,,2,,765,0,1.1,1.9,1,646774e0f86825ab62c37581,1586,-1,1,46,70,2,fieldSmooth,5
,39,0.098716,Hue-3 with Wave-5,,1,0,44.73369780893667,0.048814508671942,,2,,1201,2,1.1,1.9,1,646774e0f86825ab62c37581,1471,1,6,46,71,1,fieldSmooth,5
,39,0.098716,Hue-3 with Wave-5,,0,0,44.73369780893667,0.0486803870812258,,2,,844,0,1.1,1.9,1,646774e0f86825ab62c37581,1956,-1,2,46,72,2,fieldSmooth,5
,40,0.098716,Hue-3 with Wave-6,,0,0,44.73369780893667,0.0921977184496149,,2,,1066,0,1.1,1.9,1,646774e0f86825ab62c37581,1315,-1,4,46,73,1,fieldSmooth,5
,40,0.098716,Hue-3 with Wave-6,,0,0,44.73369780893667,0.0868596079140131,,2,,765,0,1.1,1.9,1,646774e0f86825ab62c37581,1673,-1,3,46,74,2,fieldSmooth,5
,41,0.098716,Hue-5 with Wave-4,,0,0,27.949694569807928,0.0657232159521459,,2,,822,0,1.1,1.9,1,646774e0f86825ab62c37581,1457,-1,1,46,75,1,fieldSmooth,5
,41,0.098716,Hue-5 with Wave-4,,0,0,27.949694569807928,0.0579702956969109,,2,,837,0,1.1,1.9,1,646774e0f86825ab62c37581,1486,-1,2,46,76,2,fieldSmooth,5
,42,0.098716,Hue-7 with Wave-1,,1,0,56.88150269999558,0.1128759454658671,,2,,1044,2,1.1,1.9,1,646774e0f86825ab62c37581,1165,1,4,46,77,1,fieldSmooth,5
,42,0.098716,Hue-7 with Wave-1,,0,0,56.88150269999558,0.0724659790111184,,2,,855,0,1.1,1.9,1,646774e0f86825ab62c37581,1527,-1,1,46,78,2,fieldSmooth,5
45-54,1,0.098716,Hue-0 with Wave-6,,1,0,0.0,0.0888152637804482,bachelor,3,male,1385,2,1.1,1.9,1,64788046d0fc88f991d3847c,70645,1,2,78,1,1,fieldSmooth,6
45-54,1,0.098716,Hue-0 with Wave-6,,1,0,0.0,0.0655871920074413,bachelor,3,male,1372,1,1.1,1.9,1,64788046d0fc88f991d3847c,28143,0,5,78,2,2,fieldSmooth,6
45-54,2,0.098716,Hue-0 with Wave-8,,1,0,0.0,0.0668681421876888,bachelor,3,male,1416,1,1.1,1.9,1,64788046d0fc88f991d3847c,14067,0,2,78,3,1,fieldSmooth,6
45-54,2,0.098716,Hue-0 with Wave-8,,1,0,0.0,0.0986959419723067,bachelor,3,male,1174,1,1.1,1.9,1,64788046d0fc88f991d3847c,10377,0,1,78,4,2,fieldSmooth,6
45-54,3,0.098716,Hue-7 with Wave-7,,1,0,50.80507908801665,0.0958098218728004,bachelor,3,male,1844,1,1.1,1.9,1,64788046d0fc88f991d3847c,25946,0,2,78,5,1,fieldSmooth,6
45-54,3,0.098716,Hue-7 with Wave-7,,1,0,50.80507908801665,0.0787558234803093,bachelor,3,male,1284,1,1.1,1.9,1,64788046d0fc88f991d3847c,19534,0,4,78,6,2,fieldSmooth,6
45-54,4,0.098716,Hue-7 with Wave-0,,1,0,50.80507908801665,0.0582927713317275,bachelor,3,male,1567,1,1.1,1.9,1,64788046d0fc88f991d3847c,16862,0,6,78,7,1,fieldSmooth,6
45-54,4,0.098716,Hue-7 with Wave-0,,1,0,50.80507908801665,0.094049270890424,bachelor,3,male,1215,1,1.1,1.9,1,64788046d0fc88f991d3847c,17937,0,3,78,8,2,fieldSmooth,6
45-54,5,0.098716,Hue-7 with Wave-8,,1,0,50.80507908801665,0.0838837924233703,bachelor,3,male,1655,2,1.1,1.9,1,64788046d0fc88f991d3847c,20577,1,4,78,9,1,fieldSmooth,6
45-54,5,0.098716,Hue-7 with Wave-8,,1,0,50.80507908801665,0.0895501538069735,bachelor,3,male,1270,1,1.1,1.9,1,64788046d0fc88f991d3847c,8587,0,4,78,10,2,fieldSmooth,6
45-54,6,0.098716,Hue-3 with Wave-6,,1,0,48.88652920118138,0.0840033984834565,bachelor,3,male,1441,1,1.1,1.9,1,64788046d0fc88f991d3847c,21783,0,1,78,11,1,fieldSmooth,6
45-54,6,0.098716,Hue-3 with Wave-6,,1,0,48.88652920118138,0.0611554042099073,bachelor,3,male,1326,1,1.1,1.9,1,64788046d0fc88f991d3847c,8127,0,5,78,12,2,fieldSmooth,6
45-54,7,0.098716,Hue-3 with Wave-3,,1,0,48.88652920118138,0.0615209436047798,bachelor,3,male,2157,1,1.1,1.9,1,64788046d0fc88f991d3847c,6056,0,1,78,13,1,fieldSmooth,6
45-54,7,0.098716,Hue-3 with Wave-3,,1,0,48.88652920118138,0.0563959418308573,bachelor,3,male,1383,1,1.1,1.9,1,64788046d0fc88f991d3847c,21769,0,1,78,14,2,fieldSmooth,6
45-54,8,0.098716,Hue-3 with Wave-1,,1,0,48.88652920118138,0.0707631711742782,bachelor,3,male,1627,2,1.1,1.9,1,64788046d0fc88f991d3847c,8111,1,5,78,15,1,fieldSmooth,6
45-54,8,0.098716,Hue-3 with Wave-1,,1,0,48.88652920118138,0.0791029178139905,bachelor,3,male,1239,2,1.1,1.9,1,64788046d0fc88f991d3847c,21333,1,1,78,16,2,fieldSmooth,6
45-54,9,0.098716,Hue-5 with Wave-9,,1,0,6.782622075387934,0.1062189933042115,bachelor,3,male,1354,1,1.1,1.9,1,64788046d0fc88f991d3847c,8968,0,1,78,17,1,fieldSmooth,6
45-54,9,0.098716,Hue-5 with Wave-9,,1,0,6.782622075387934,0.0835758024966085,bachelor,3,male,1323,2,1.1,1.9,1,64788046d0fc88f991d3847c,16956,1,4,78,18,2,fieldSmooth,6
45-54,10,0.098716,Hue-3 with Wave-5,,1,0,48.88652920118138,0.0870664616363938,bachelor,3,male,1740,1,1.1,1.9,1,64788046d0fc88f991d3847c,12875,0,6,78,19,1,fieldSmooth,6
45-54,10,0.098716,Hue-3 with Wave-5,,1,0,48.88652920118138,0.0766243166871688,bachelor,3,male,1386,1,1.1,1.9,1,64788046d0fc88f991d3847c,13211,0,2,78,20,2,fieldSmooth,6
45-54,11,0.098716,Hue-3 with Wave-8,,1,0,48.88652920118138,0.0685992848002198,bachelor,3,male,1511,1,1.1,1.9,1,64788046d0fc88f991d3847c,8316,0,5,78,21,1,fieldSmooth,6
45-54,11,0.098716,Hue-3 with Wave-8,,1,0,48.88652920118138,0.0641443194097499,bachelor,3,male,1405,2,1.1,1.9,1,64788046d0fc88f991d3847c,27847,1,4,78,22,2,fieldSmooth,6
45-54,12,0.098716,Hue-0 with Wave-1,,1,0,0.0,0.0597353646300041,bachelor,3,male,1648,2,1.1,1.9,1,64788046d0fc88f991d3847c,7667,1,6,78,23,1,fieldSmooth,6
45-54,12,0.098716,Hue-0 with Wave-1,,1,0,0.0,0.0653206109570512,bachelor,3,male,1301,2,1.1,1.9,1,64788046d0fc88f991d3847c,6679,1,3,78,24,2,fieldSmooth,6
45-54,13,0.098716,Hue-7 with Wave-3,,1,0,50.80507908801665,0.070771864936844,bachelor,3,male,1636,1,1.1,1.9,1,64788046d0fc88f991d3847c,46679,0,6,78,25,1,fieldSmooth,6
45-54,13,0.098716,Hue-7 with Wave-3,,1,0,50.80507908801665,0.0598002924623931,bachelor,3,male,1314,1,1.1,1.9,1,64788046d0fc88f991d3847c,16654,0,5,78,26,2,fieldSmooth,6
45-54,14,0.098716,Hue-0 with Wave-5,,1,0,0.0,0.0396509889318769,bachelor,3,male,1699,2,1.1,1.9,1,64788046d0fc88f991d3847c,23852,1,1,78,27,1,fieldSmooth,6
45-54,14,0.098716,Hue-0 with Wave-5,,1,0,0.0,0.1078146072218137,bachelor,3,male,1191,2,1.1,1.9,1,64788046d0fc88f991d3847c,24215,1,3,78,28,2,fieldSmooth,6
45-54,15,0.098716,Hue-5 with Wave-1,,1,0,6.782622075387934,0.0521823388133605,bachelor,3,male,1745,2,1.1,1.9,1,64788046d0fc88f991d3847c,8328,1,4,78,29,1,fieldSmooth,6
45-54,15,0.098716,Hue-5 with Wave-1,,1,0,6.782622075387934,0.0764929806717209,bachelor,3,male,1276,1,1.1,1.9,1,64788046d0fc88f991d3847c,17829,0,1,78,30,2,fieldSmooth,6
45-54,16,0.098716,Hue-5 with Wave-3,,1,0,6.782622075387934,0.0675050661778394,bachelor,3,male,1411,1,1.1,1.9,1,64788046d0fc88f991d3847c,16129,0,1,78,31,1,fieldSmooth,6
45-54,16,0.098716,Hue-5 with Wave-3,,1,0,6.782622075387934,0.0900035564734535,bachelor,3,male,1682,2,1.1,1.9,1,64788046d0fc88f991d3847c,12410,1,1,78,32,2,fieldSmooth,6
45-54,17,0.098716,Hue-5 with Wave-0,,1,0,6.782622075387934,0.0490118092445819,bachelor,3,male,1647,2,1.1,1.9,1,64788046d0fc88f991d3847c,13231,1,6,78,33,1,fieldSmooth,6
45-54,17,0.098716,Hue-5 with Wave-0,,1,0,6.782622075387934,0.1133137634637848,bachelor,3,male,1242,1,1.1,1.9,1,64788046d0fc88f991d3847c,5277,0,6,78,34,2,fieldSmooth,6
45-54,18,0.098716,Hue-3 with Wave-4,,1,0,48.88652920118138,0.0920368191648478,bachelor,3,male,1642,1,1.1,1.9,1,64788046d0fc88f991d3847c,10836,0,2,78,35,1,fieldSmooth,6
45-54,18,0.098716,Hue-3 with Wave-4,,1,0,48.88652920118138,0.0365834187118682,bachelor,3,male,1330,2,1.1,1.9,1,64788046d0fc88f991d3847c,16019,1,3,78,36,2,fieldSmooth,6
45-54,19,0.098716,Hue-3 with Wave-9,,1,0,48.88652920118138,0.0602023719942308,bachelor,3,male,1757,2,1.1,1.9,1,64788046d0fc88f991d3847c,17758,1,5,78,37,1,fieldSmooth,6
45-54,19,0.098716,Hue-3 with Wave-9,,1,0,48.88652920118138,0.1045385137860623,bachelor,3,male,1378,1,1.1,1.9,1,64788046d0fc88f991d3847c,6265,0,5,78,38,2,fieldSmooth,6
45-54,20,0.098716,Hue-0 with Wave-9,,1,0,0.0,0.0711267933076922,bachelor,3,male,1270,1,1.1,1.9,1,64788046d0fc88f991d3847c,5151,0,5,78,39,1,fieldSmooth,6
45-54,20,0.098716,Hue-0 with Wave-9,,1,0,0.0,0.0815335566296858,bachelor,3,male,1217,2,1.1,1.9,1,64788046d0fc88f991d3847c,12780,1,5,78,40,2,fieldSmooth,6
45-54,21,0.098716,Hue-7 with Wave-5,,1,0,50.80507908801665,0.096722701103795,bachelor,3,male,1659,2,1.1,1.9,1,64788046d0fc88f991d3847c,18828,1,4,78,41,1,fieldSmooth,6
45-54,21,0.098716,Hue-7 with Wave-5,,1,0,50.80507908801665,0.1471521179377291,bachelor,3,male,1246,1,1.1,1.9,1,64788046d0fc88f991d3847c,7812,0,1,78,42,2,fieldSmooth,6
45-54,22,0.098716,Hue-0 with Wave-3,,1,0,0.0,0.076874242492253,bachelor,3,male,1481,2,1.1,1.9,1,64788046d0fc88f991d3847c,4683,1,2,78,43,1,fieldSmooth,6
45-54,22,0.098716,Hue-0 with Wave-3,,1,0,0.0,0.0487209272022994,bachelor,3,male,1272,2,1.1,1.9,1,64788046d0fc88f991d3847c,9238,1,4,78,44,2,fieldSmooth,6
45-54,23,0.098716,Hue-0 with Wave-7,,1,0,0.0,0.0772514491279909,bachelor,3,male,1626,1,1.1,1.9,1,64788046d0fc88f991d3847c,16403,0,4,78,45,1,fieldSmooth,6
45-54,23,0.098716,Hue-0 with Wave-7,,1,0,0.0,0.0909466361575929,bachelor,3,male,1277,2,1.1,1.9,1,64788046d0fc88f991d3847c,20204,1,1,78,46,2,fieldSmooth,6
45-54,24,0.098716,Hue-3 with Wave-2,,1,0,48.88652920118138,0.0716199376083339,bachelor,3,male,1540,1,1.1,1.9,1,64788046d0fc88f991d3847c,37638,0,3,78,47,1,fieldSmooth,6
45-54,24,0.098716,Hue-3 with Wave-2,,1,0,48.88652920118138,0.0405041741052544,bachelor,3,male,1352,2,1.1,1.9,1,64788046d0fc88f991d3847c,8314,1,5,78,48,2,fieldSmooth,6
45-54,25,0.098716,Hue-7 with Wave-6,,1,0,50.80507908801665,0.0813702528971516,bachelor,3,male,1528,1,1.1,1.9,1,64788046d0fc88f991d3847c,12624,0,1,78,49,1,fieldSmooth,6
45-54,25,0.098716,Hue-7 with Wave-6,,1,0,50.80507908801665,0.0418962294831813,bachelor,3,male,1410,2,1.1,1.9,1,64788046d0fc88f991d3847c,21684,1,2,78,50,2,fieldSmooth,6
45-54,26,0.098716,Hue-0 with Wave-2,,1,0,0.0,0.0473666738281708,bachelor,3,male,1748,2,1.1,1.9,1,64788046d0fc88f991d3847c,8384,1,1,78,51,1,fieldSmooth,6
45-54,26,0.098716,Hue-0 with Wave-2,,1,0,0.0,0.0463241804726505,bachelor,3,male,1293,2,1.1,1.9,1,64788046d0fc88f991d3847c,5911,1,5,78,52,2,fieldSmooth,6
45-54,27,0.098716,Hue-7 with Wave-1,,1,0,50.80507908801665,0.0770667190067723,bachelor,3,male,1756,2,1.1,1.9,1,64788046d0fc88f991d3847c,5050,1,2,78,53,1,fieldSmooth,6
45-54,27,0.098716,Hue-7 with Wave-1,,1,0,50.80507908801665,0.0430681814976126,bachelor,3,male,1426,1,1.1,1.9,1,64788046d0fc88f991d3847c,9325,0,6,78,54,2,fieldSmooth,6
45-54,29,0.098716,Hue-5 with Wave-2,,1,0,6.782622075387934,0.0738445471089951,bachelor,3,male,1588,2,1.1,1.9,1,64788046d0fc88f991d3847c,6394,1,5,78,55,1,fieldSmooth,6
45-54,29,0.098716,Hue-5 with Wave-2,,1,0,6.782622075387934,0.0743757140218548,bachelor,3,male,1159,2,1.1,1.9,1,64788046d0fc88f991d3847c,10303,1,1,78,56,2,fieldSmooth,6
45-54,30,0.098716,Hue-3 with Wave-7,,1,0,48.88652920118138,0.0655481652821632,bachelor,3,male,1704,2,1.1,1.9,1,64788046d0fc88f991d3847c,14835,1,2,78,57,1,fieldSmooth,6
45-54,30,0.098716,Hue-3 with Wave-7,,1,0,48.88652920118138,0.0622252964588874,bachelor,3,male,1325,2,1.1,1.9,1,64788046d0fc88f991d3847c,14107,1,6,78,58,2,fieldSmooth,6
45-54,31,0.098716,Hue-3 with Wave-0,,1,0,48.88652920118138,0.0716591141036658,bachelor,3,male,2275,1,1.1,1.9,1,64788046d0fc88f991d3847c,6063,0,2,78,59,1,fieldSmooth,6
45-54,31,0.098716,Hue-3 with Wave-0,,1,0,48.88652920118138,0.0829070116873537,bachelor,3,male,1119,1,1.1,1.9,1,64788046d0fc88f991d3847c,8157,0,4,78,60,2,fieldSmooth,6
45-54,32,0.098716,Hue-7 with Wave-2,,1,0,50.80507908801665,0.1304660759613649,bachelor,3,male,1449,1,1.1,1.9,1,64788046d0fc88f991d3847c,9438,0,6,78,61,1,fieldSmooth,6
45-54,32,0.098716,Hue-7 with Wave-2,,1,0,50.80507908801665,0.1094039987923096,bachelor,3,male,1227,1,1.1,1.9,1,64788046d0fc88f991d3847c,8363,0,2,78,62,2,fieldSmooth,6
45-54,33,0.098716,Hue-0 with Wave-4,,1,0,0.0,0.0749814112181114,bachelor,3,male,1502,2,1.1,1.9,1,64788046d0fc88f991d3847c,20650,1,3,78,63,1,fieldSmooth,6
45-54,33,0.098716,Hue-0 with Wave-4,,1,0,0.0,0.1257463611762218,bachelor,3,male,1172,1,1.1,1.9,1,64788046d0fc88f991d3847c,16823,0,3,78,64,2,fieldSmooth,6
45-54,34,0.098716,Hue-5 with Wave-8,,1,0,6.782622075387934,0.0654876142785959,bachelor,3,male,1630,1,1.1,1.9,1,64788046d0fc88f991d3847c,18275,0,5,78,65,1,fieldSmooth,6
45-54,34,0.098716,Hue-5 with Wave-8,,1,0,6.782622075387934,0.0398520353212021,bachelor,3,male,1329,1,1.1,1.9,1,64788046d0fc88f991d3847c,6447,0,5,78,66,2,fieldSmooth,6
45-54,36,0.098716,Hue-7 with Wave-9,,1,0,50.80507908801665,0.1284034528444349,bachelor,3,male,1466,1,1.1,1.9,1,64788046d0fc88f991d3847c,5085,0,4,78,67,1,fieldSmooth,6
45-54,36,0.098716,Hue-7 with Wave-9,,1,0,50.80507908801665,0.0878680628247323,bachelor,3,male,1185,1,1.1,1.9,1,64788046d0fc88f991d3847c,7565,0,4,78,68,2,fieldSmooth,6
45-54,37,0.098716,Hue-5 with Wave-5,,1,0,6.782622075387934,0.0816464979164752,bachelor,3,male,1754,2,1.1,1.9,1,64788046d0fc88f991d3847c,11133,1,3,78,69,1,fieldSmooth,6
45-54,37,0.098716,Hue-5 with Wave-5,,1,0,6.782622075387934,0.0610029290678282,bachelor,3,male,1298,2,1.1,1.9,1,64788046d0fc88f991d3847c,25094,1,1,78,70,2,fieldSmooth,6
45-54,38,0.098716,Hue-5 with Wave-6,,1,0,6.782622075387934,0.1645350782759436,bachelor,3,male,1625,1,1.1,1.9,1,64788046d0fc88f991d3847c,6553,0,1,78,71,1,fieldSmooth,6
45-54,38,0.098716,Hue-5 with Wave-6,,1,0,6.782622075387934,0.0688438086600155,bachelor,3,male,1279,2,1.1,1.9,1,64788046d0fc88f991d3847c,10105,1,6,78,72,2,fieldSmooth,6
45-54,40,0.098716,Hue-5 with Wave-4,,1,0,6.782622075387934,0.0557828862353154,bachelor,3,male,1727,2,1.1,1.9,1,64788046d0fc88f991d3847c,10408,1,1,78,73,1,fieldSmooth,6
45-54,40,0.098716,Hue-5 with Wave-4,,1,0,6.782622075387934,0.1190577975060618,bachelor,3,male,1338,1,1.1,1.9,1,64788046d0fc88f991d3847c,9845,0,4,78,74,2,fieldSmooth,6
45-54,41,0.098716,Hue-7 with Wave-4,,1,0,50.80507908801665,0.0541973927646116,bachelor,3,male,2450,2,1.1,1.9,1,64788046d0fc88f991d3847c,4708,1,4,78,75,1,fieldSmooth,6
45-54,41,0.098716,Hue-7 with Wave-4,,1,0,50.80507908801665,0.0731586155864357,bachelor,3,male,1273,1,1.1,1.9,1,64788046d0fc88f991d3847c,5279,0,3,78,76,2,fieldSmooth,6
45-54,42,0.098716,Hue-5 with Wave-7,,1,0,6.782622075387934,0.1292089761864429,bachelor,3,male,1698,2,1.1,1.9,1,64788046d0fc88f991d3847c,14854,1,6,78,77,1,fieldSmooth,6
45-54,42,0.098716,Hue-5 with Wave-7,,1,0,6.782622075387934,0.0517243131311009,bachelor,3,male,1261,1,1.1,1.9,1,64788046d0fc88f991d3847c,13637,0,2,78,78,2,fieldSmooth,6
,1,0.098716,Hue-5 with Wave-6,,1,0,51.46676939640479,0.0588280295794047,,3,,906,1,1.1,1.9,1,664439645a9a29be43d5bf5a,18063,0,2,78,1,1,fieldSmooth,7
,1,0.098716,Hue-5 with Wave-6,,1,0,51.46676939640479,0.077799117631225,,3,,827,1,1.1,1.9,1,664439645a9a29be43d5bf5a,7405,0,2,78,2,2,fieldSmooth,7
,2,0.098716,Hue-0 with Wave-1,,1,0,0.0,0.0460011891364373,,3,,980,2,1.1,1.9,1,664439645a9a29be43d5bf5a,10298,1,6,78,3,1,fieldSmooth,7
,2,0.098716,Hue-0 with Wave-1,,1,0,0.0,0.0577108158099596,,3,,751,2,1.1,1.9,1,664439645a9a29be43d5bf5a,5264,1,5,78,4,2,fieldSmooth,7
,3,0.098716,Hue-3 with Wave-0,,1,0,20.45283441089402,0.0521745708983958,,3,,1049,1,1.1,1.9,1,664439645a9a29be43d5bf5a,19688,0,3,78,5,1,fieldSmooth,7
,3,0.098716,Hue-3 with Wave-0,,1,0,20.45283441089402,0.1067536514244101,,3,,787,1,1.1,1.9,1,664439645a9a29be43d5bf5a,11264,0,3,78,6,2,fieldSmooth,7
,4,0.098716,Hue-3 with Wave-2,,1,0,20.45283441089402,0.0876658338891899,,3,,934,1,1.1,1.9,1,664439645a9a29be43d5bf5a,8379,0,5,78,7,1,fieldSmooth,7
,4,0.098716,Hue-3 with Wave-2,,1,0,20.45283441089402,0.0929383958090853,,3,,803,1,1.1,1.9,1,664439645a9a29be43d5bf5a,9654,0,3,78,8,2,fieldSmooth,7
,5,0.098716,Hue-7 with Wave-1,,1,0,24.67204480014682,0.1043998086146354,,3,,839,1,1.1,1.9,1,664439645a9a29be43d5bf5a,8070,0,2,78,9,1,fieldSmooth,7
,5,0.098716,Hue-7 with Wave-1,,1,0,24.67204480014682,0.0470856348641751,,3,,805,2,1.1,1.9,1,664439645a9a29be43d5bf5a,9641,1,5,78,10,2,fieldSmooth,7
,6,0.098716,Hue-3 with Wave-8,,1,0,20.45283441089402,0.0609724879265288,,3,,1021,2,1.1,1.9,1,664439645a9a29be43d5bf5a,6121,1,6,78,11,1,fieldSmooth,7
,6,0.098716,Hue-3 with Wave-8,,1,0,20.45283441089402,0.0707175910349076,,3,,748,2,1.1,1.9,1,664439645a9a29be43d5bf5a,20981,1,5,78,12,2,fieldSmooth,7
,7,0.098716,Hue-3 with Wave-5,,1,0,20.45283441089402,0.0675471823532635,,3,,923,1,1.1,1.9,1,664439645a9a29be43d5bf5a,8943,0,6,78,13,1,fieldSmooth,7
,7,0.098716,Hue-3 with Wave-5,,1,0,20.45283441089402,0.0963002940747642,,3,,748,1,1.1,1.9,1,664439645a9a29be43d5bf5a,13378,0,3,78,14,2,fieldSmooth,7
,8,0.098716,Hue-0 with Wave-5,,1,0,0.0,0.0825233303106615,,3,,787,1,1.1,1.9,1,664439645a9a29be43d5bf5a,9927,0,4,78,15,1,fieldSmooth,7
,8,0.098716,Hue-0 with Wave-5,,1,0,0.0,0.0601791879431457,,3,,760,2,1.1,1.9,1,664439645a9a29be43d5bf5a,33422,1,3,78,16,2,fieldSmooth,7
,9,0.098716,Hue-3 with Wave-9,,1,0,20.45283441089402,0.0469323801466546,,3,,967,1,1.1,1.9,1,664439645a9a29be43d5bf5a,13764,0,6,78,17,1,fieldSmooth,7
,9,0.098716,Hue-3 with Wave-9,,1,0,20.45283441089402,0.0875153417652137,,3,,784,1,1.1,1.9,1,664439645a9a29be43d5bf5a,12859,0,6,78,18,2,fieldSmooth,7
,10,0.098716,Hue-5 with Wave-7,,1,0,51.46676939640479,0.0913668825555114,,3,,944,1,1.1,1.9,1,664439645a9a29be43d5bf5a,10213,0,6,78,19,1,fieldSmooth,7
,10,0.098716,Hue-5 with Wave-7,,1,0,51.46676939640479,0.0718510931065234,,3,,748,2,1.1,1.9,1,664439645a9a29be43d5bf5a,7985,1,5,78,20,2,fieldSmooth,7
,11,0.098716,Hue-0 with Wave-8,,1,0,0.0,0.1074577760188336,,3,,960,1,1.1,1.9,1,664439645a9a29be43d5bf5a,10294,0,6,78,21,1,fieldSmooth,7
,11,0.098716,Hue-0 with Wave-8,,1,0,0.0,0.0725324313335781,,3,,820,1,1.1,1.9,1,664439645a9a29be43d5bf5a,6417,0,4,78,22,2,fieldSmooth,7
,12,0.098716,Hue-3 with Wave-7,,1,0,20.45283441089402,0.0988828638246002,,3,,885,2,1.1,1.9,1,664439645a9a29be43d5bf5a,29031,1,3,78,23,1,fieldSmooth,7
,12,0.098716,Hue-3 with Wave-7,,1,0,20.45283441089402,0.0938777628220485,,3,,771,1,1.1,1.9,1,664439645a9a29be43d5bf5a,4706,0,1,78,24,2,fieldSmooth,7
,14,0.098716,Hue-3 with Wave-6,,1,0,20.45283441089402,0.0393345014550969,,3,,971,1,1.1,1.9,1,664439645a9a29be43d5bf5a,8974,0,4,78,25,1,fieldSmooth,7
,14,0.098716,Hue-3 with Wave-6,,1,0,20.45283441089402,0.0708811045031061,,3,,739,2,1.1,1.9,1,664439645a9a29be43d5bf5a,12457,1,3,78,26,2,fieldSmooth,7
,15,0.098716,Hue-0 with Wave-9,,1,0,0.0,0.0926779084594771,,3,,922,1,1.1,1.9,1,664439645a9a29be43d5bf5a,11188,0,6,78,27,1,fieldSmooth,7
,15,0.098716,Hue-0 with Wave-9,,1,0,0.0,0.0785250245198554,,3,,721,1,1.1,1.9,1,664439645a9a29be43d5bf5a,7437,0,4,78,28,2,fieldSmooth,7
,16,0.098716,Hue-7 with Wave-2,,1,0,24.67204480014682,0.0724624875017302,,3,,881,2,1.1,1.9,1,664439645a9a29be43d5bf5a,9525,1,1,78,29,1,fieldSmooth,7
,16,0.098716,Hue-7 with Wave-2,,1,0,24.67204480014682,0.0633536951540741,,3,,766,1,1.1,1.9,1,664439645a9a29be43d5bf5a,8112,0,6,78,30,2,fieldSmooth,7
,17,0.098716,Hue-7 with Wave-3,,1,0,24.67204480014682,0.0922008877602284,,3,,921,1,1.1,1.9,1,664439645a9a29be43d5bf5a,19246,0,2,78,31,1,fieldSmooth,7
,17,0.098716,Hue-7 with Wave-3,,1,0,24.67204480014682,0.0586472262874005,,3,,770,2,1.1,1.9,1,664439645a9a29be43d5bf5a,12693,1,6,78,32,2,fieldSmooth,7
,18,0.098716,Hue-7 with Wave-5,,1,0,24.67204480014682,0.0755365992908858,,3,,937,1,1.1,1.9,1,664439645a9a29be43d5bf5a,12456,0,3,78,33,1,fieldSmooth,7
,18,0.098716,Hue-7 with Wave-5,,1,0,24.67204480014682,0.0534930074470056,,3,,824,1,1.1,1.9,1,664439645a9a29be43d5bf5a,4971,0,5,78,34,2,fieldSmooth,7
,19,0.098716,Hue-3 with Wave-1,,1,0,20.45283441089402,0.0951139896592772,,3,,891,2,1.1,1.9,1,664439645a9a29be43d5bf5a,12125,1,2,78,35,1,fieldSmooth,7
,19,0.098716,Hue-3 with Wave-1,,1,0,20.45283441089402,0.0730153859146711,,3,,748,2,1.1,1.9,1,664439645a9a29be43d5bf5a,6305,1,3,78,36,2,fieldSmooth,7
,21,0.098716,Hue-7 with Wave-6,,1,0,24.67204480014682,0.1185269069236311,,3,,948,1,1.1,1.9,1,664439645a9a29be43d5bf5a,9308,0,4,78,37,1,fieldSmooth,7
,21,0.098716,Hue-7 with Wave-6,,1,0,24.67204480014682,0.0737884448220886,,3,,742,1,1.1,1.9,1,664439645a9a29be43d5bf5a,9013,0,4,78,38,2,fieldSmooth,7
,22,0.098716,Hue-5 with Wave-9,,1,0,51.46676939640479,0.1156471732392174,,3,,996,1,1.1,1.9,1,664439645a9a29be43d5bf5a,5254,0,4,78,39,1,fieldSmooth,7
,22,0.098716,Hue-5 with Wave-9,,1,0,51.46676939640479,0.1056246514089293,,3,,777,1,1.1,1.9,1,664439645a9a29be43d5bf5a,8724,0,2,78,40,2,fieldSmooth,7
,23,0.098716,Hue-7 with Wave-9,,1,0,24.67204480014682,0.0761244125873154,,3,,761,1,1.1,1.9,1,664439645a9a29be43d5bf5a,8440,0,3,78,41,1,fieldSmooth,7
,23,0.098716,Hue-7 with Wave-9,,1,0,24.67204480014682,0.0423369189729532,,3,,821,2,1.1,1.9,1,664439645a9a29be43d5bf5a,7381,1,4,78,42,2,fieldSmooth,7
,24,0.098716,Hue-5 with Wave-1,,1,0,51.46676939640479,0.0983368946569936,,3,,972,2,1.1,1.9,1,664439645a9a29be43d5bf5a,12021,1,3,78,43,1,fieldSmooth,7
,24,0.098716,Hue-5 with Wave-1,,1,0,51.46676939640479,0.1071666851629494,,3,,775,2,1.1,1.9,1,664439645a9a29be43d5bf5a,7012,1,6,78,44,2,fieldSmooth,7
,25,0.098716,Hue-3 with Wave-4,,1,0,20.45283441089402,0.0555652513250725,,3,,983,2,1.1,1.9,1,664439645a9a29be43d5bf5a,8095,1,1,78,45,1,fieldSmooth,7
,25,0.098716,Hue-3 with Wave-4,,1,0,20.45283441089402,0.0871892709335311,,3,,720,1,1.1,1.9,1,664439645a9a29be43d5bf5a,6149,0,2,78,46,2,fieldSmooth,7
,27,0.098716,Hue-7 with Wave-0,,1,0,24.67204480014682,0.0858725190270933,,3,,934,1,1.1,1.9,1,664439645a9a29be43d5bf5a,7890,0,4,78,47,1,fieldSmooth,7
,27,0.098716,Hue-7 with Wave-0,,1,0,24.67204480014682,0.0880523464146037,,3,,879,2,1.1,1.9,1,664439645a9a29be43d5bf5a,14812,1,1,78,48,2,fieldSmooth,7
,28,0.098716,Hue-7 with Wave-4,,1,0,24.67204480014682,0.030593532637661,,3,,1016,1,1.1,1.9,1,664439645a9a29be43d5bf5a,19026,0,2,78,49,1,fieldSmooth,7
,28,0.098716,Hue-7 with Wave-4,,1,0,24.67204480014682,0.1165072729827512,,3,,757,2,1.1,1.9,1,664439645a9a29be43d5bf5a,9478,1,1,78,50,2,fieldSmooth,7
,29,0.098716,Hue-5 with Wave-4,,1,0,51.46676939640479,0.0866022006232261,,3,,961,1,1.1,1.9,1,664439645a9a29be43d5bf5a,6941,0,5,78,51,1,fieldSmooth,7
,29,0.098716,Hue-5 with Wave-4,,1,0,51.46676939640479,0.0748928788559345,,3,,776,1,1.1,1.9,1,664439645a9a29be43d5bf5a,19531,0,3,78,52,2,fieldSmooth,7
,30,0.098716,Hue-0 with Wave-3,,1,0,0.0,0.0781532067104577,,3,,943,1,1.1,1.9,1,664439645a9a29be43d5bf5a,6952,0,2,78,53,1,fieldSmooth,7
,30,0.098716,Hue-0 with Wave-3,,1,0,0.0,0.0667229231727667,,3,,752,2,1.1,1.9,1,664439645a9a29be43d5bf5a,9149,1,6,78,54,2,fieldSmooth,7
,31,0.098716,Hue-5 with Wave-0,,1,0,51.46676939640479,0.0517397568113413,,3,,918,1,1.1,1.9,1,664439645a9a29be43d5bf5a,7772,0,6,78,55,1,fieldSmooth,7
,31,0.098716,Hue-5 with Wave-0,,1,0,51.46676939640479,0.1493883975362003,,3,,693,1,1.1,1.9,1,664439645a9a29be43d5bf5a,6999,0,1,78,56,2,fieldSmooth,7
,32,0.098716,Hue-0 with Wave-7,,1,0,0.0,0.0793881902873423,,3,,981,1,1.1,1.9,1,664439645a9a29be43d5bf5a,6659,0,2,78,57,1,fieldSmooth,7
,32,0.098716,Hue-0 with Wave-7,,1,0,0.0,0.1303766343463448,,3,,710,1,1.1,1.9,1,664439645a9a29be43d5bf5a,11898,0,2,78,58,2,fieldSmooth,7
,33,0.098716,Hue-5 with Wave-8,,1,0,51.46676939640479,0.0810773038077803,,3,,959,2,1.1,1.9,1,664439645a9a29be43d5bf5a,4962,1,1,78,59,1,fieldSmooth,7
,33,0.098716,Hue-5 with Wave-8,,1,0,51.46676939640479,0.0957974280644358,,3,,797,1,1.1,1.9,1,664439645a9a29be43d5bf5a,8196,0,1,78,60,2,fieldSmooth,7
,34,0.098716,Hue-7 with Wave-8,,1,0,24.67204480014682,0.0658828119939944,,3,,897,1,1.1,1.9,1,664439645a9a29be43d5bf5a,9800,0,2,78,61,1,fieldSmooth,7
,34,0.098716,Hue-7 with Wave-8,,1,0,24.67204480014682,0.0411075219691311,,3,,804,1,1.1,1.9,1,664439645a9a29be43d5bf5a,7521,0,1,78,62,2,fieldSmooth,7
,35,0.098716,Hue-3 with Wave-3,,1,0,20.45283441089402,0.0712827789629549,,3,,889,1,1.1,1.9,1,664439645a9a29be43d5bf5a,10567,0,3,78,63,1,fieldSmooth,7
,35,0.098716,Hue-3 with Wave-3,,1,0,20.45283441089402,0.0966349116049195,,3,,775,1,1.1,1.9,1,664439645a9a29be43d5bf5a,7946,0,4,78,64,2,fieldSmooth,7
,36,0.098716,Hue-5 with Wave-3,,1,0,51.46676939640479,0.0319100437483521,,3,,1012,1,1.1,1.9,1,664439645a9a29be43d5bf5a,8866,0,1,78,65,1,fieldSmooth,7
,36,0.098716,Hue-5 with Wave-3,,1,0,51.46676939640479,0.1390260192448659,,3,,718,1,1.1,1.9,1,664439645a9a29be43d5bf5a,7134,0,1,78,66,2,fieldSmooth,7
,37,0.098716,Hue-5 with Wave-2,,1,0,51.46676939640479,0.0645446213720915,,3,,921,1,1.1,1.9,1,664439645a9a29be43d5bf5a,15609,0,3,78,67,1,fieldSmooth,7
,37,0.098716,Hue-5 with Wave-2,,1,0,51.46676939640479,0.0641652895425379,,3,,756,1,1.1,1.9,1,664439645a9a29be43d5bf5a,24783,0,6,78,68,2,fieldSmooth,7
,38,0.098716,Hue-0 with Wave-6,,1,0,0.0,0.0757568216230697,,3,,910,2,1.1,1.9,1,664439645a9a29be43d5bf5a,13549,1,6,78,69,1,fieldSmooth,7
,38,0.098716,Hue-0 with Wave-6,,1,0,0.0,0.0725083982107323,,3,,745,2,1.1,1.9,1,664439645a9a29be43d5bf5a,15236,1,6,78,70,2,fieldSmooth,7
,39,0.098716,Hue-0 with Wave-4,,1,0,0.0,0.0777760528102934,,3,,796,2,1.1,1.9,1,664439645a9a29be43d5bf5a,6170,1,3,78,71,1,fieldSmooth,7
,39,0.098716,Hue-0 with Wave-4,,1,0,0.0,0.0750872669898457,,3,,717,1,1.1,1.9,1,664439645a9a29be43d5bf5a,6047,0,6,78,72,2,fieldSmooth,7
,40,0.098716,Hue-0 with Wave-2,,1,0,0.0,0.1030918438704954,,3,,910,2,1.1,1.9,1,664439645a9a29be43d5bf5a,16629,1,6,78,73,1,fieldSmooth,7
,40,0.098716,Hue-0 with Wave-2,,1,0,0.0,0.0665491646867388,,3,,711,1,1.1,1.9,1,664439645a9a29be43d5bf5a,12137,0,5,78,74,2,fieldSmooth,7
,41,0.098716,Hue-5 with Wave-5,,1,0,51.46676939640479,0.0446754000009133,,3,,992,1,1.1,1.9,1,664439645a9a29be43d5bf5a,8557,0,5,78,75,1,fieldSmooth,7
,41,0.098716,Hue-5 with Wave-5,,1,0,51.46676939640479,0.0739134579109099,,3,,785,1,1.1,1.9,1,664439645a9a29be43d5bf5a,5469,0,3,78,76,2,fieldSmooth,7
,42,0.098716,Hue-7 with Wave-7,,1,0,24.67204480014682,0.0466570187947448,,3,,975,2,1.1,1.9,1,664439645a9a29be43d5bf5a,12072,1,1,78,77,1,fieldSmooth,7
,42,0.098716,Hue-7 with Wave-7,,1,0,24.67204480014682,0.0847536169052196,,3,,755,1,1.1,1.9,1,664439645a9a29be43d5bf5a,8002,0,2,78,78,2,fieldSmooth,7
,1,0.098716,Hue-3 with Wave-4,,1,0,12.639530661060668,0.0895964270571892,,3,,654,1,1.1,1.9,1,664babd04754ce9f840d34ed,9152,0,2,77,1,1,fieldSmooth,8
,1,0.098716,Hue-3 with Wave-4,,1,0,12.639530661060668,0.0705775408031766,,3,,630,1,1.1,1.9,1,664babd04754ce9f840d34ed,27324,0,2,77,2,2,fieldSmooth,8
,2,0.098716,Hue-0 with Wave-2,,1,0,0.0,0.0681470023079646,,3,,748,2,1.1,1.9,1,664babd04754ce9f840d34ed,7534,1,6,77,3,1,fieldSmooth,8
,2,0.098716,Hue-0 with Wave-2,,1,0,0.0,0.0358937371068125,,3,,528,2,1.1,1.9,1,664babd04754ce9f840d34ed,7232,1,3,77,4,2,fieldSmooth,8
,4,0.098716,Hue-5 with Wave-7,,1,0,54.1086153142376,0.0990129228946804,,3,,695,1,1.1,1.9,1,664babd04754ce9f840d34ed,3206,0,6,77,5,1,fieldSmooth,8
,4,0.098716,Hue-5 with Wave-7,,1,0,54.1086153142376,0.1007875498317139,,3,,549,1,1.1,1.9,1,664babd04754ce9f840d34ed,3471,0,3,77,6,2,fieldSmooth,8
,5,0.098716,Hue-5 with Wave-6,,1,0,54.1086153142376,0.0526747282612391,,3,,899,2,1.1,1.9,1,664babd04754ce9f840d34ed,2792,1,3,77,7,1,fieldSmooth,8
,5,0.098716,Hue-5 with Wave-6,,1,0,54.1086153142376,0.0847481232665688,,3,,559,2,1.1,1.9,1,664babd04754ce9f840d34ed,5680,1,1,77,8,2,fieldSmooth,8
,6,0.098716,Hue-3 with Wave-0,,1,0,12.639530661060668,0.081487886082686,,3,,682,1,1.1,1.9,1,664babd04754ce9f840d34ed,25563,0,5,77,9,1,fieldSmooth,8
,6,0.098716,Hue-3 with Wave-0,,0,0,12.639530661060668,0.0771355175884898,,3,,511,0,1.1,1.9,1,664babd04754ce9f840d34ed,11473,-1,3,77,10,2,fieldSmooth,8
,7,0.098716,Hue-3 with Wave-5,,1,0,12.639530661060668,0.0871136017407266,,3,,681,1,1.1,1.9,1,664babd04754ce9f840d34ed,10472,0,5,77,11,1,fieldSmooth,8
,7,0.098716,Hue-3 with Wave-5,,1,0,12.639530661060668,0.0501060255191625,,3,,548,2,1.1,1.9,1,664babd04754ce9f840d34ed,3282,1,2,77,12,2,fieldSmooth,8
,8,0.098716,Hue-7 with Wave-8,,1,0,38.457063684530354,0.0453551615445666,,3,,568,2,1.1,1.9,1,664babd04754ce9f840d34ed,3515,1,2,77,13,1,fieldSmooth,8
,8,0.098716,Hue-7 with Wave-8,,1,0,38.457063684530354,0.0731748972752663,,3,,560,1,1.1,1.9,1,664babd04754ce9f840d34ed,13366,0,2,77,14,2,fieldSmooth,8
,9,0.098716,Hue-5 with Wave-9,,1,0,54.1086153142376,0.078729525146907,,3,,655,2,1.1,1.9,1,664babd04754ce9f840d34ed,7490,1,5,77,15,1,fieldSmooth,8
,9,0.098716,Hue-5 with Wave-9,,1,0,54.1086153142376,0.0457375737635698,,3,,560,2,1.1,1.9,1,664babd04754ce9f840d34ed,7848,1,6,77,16,2,fieldSmooth,8
,10,0.098716,Hue-3 with Wave-2,,1,0,12.639530661060668,0.072168409346738,,3,,687,2,1.1,1.9,1,664babd04754ce9f840d34ed,8805,1,3,77,17,1,fieldSmooth,8
,10,0.098716,Hue-3 with Wave-2,,1,0,12.639530661060668,0.0657478171347642,,3,,532,2,1.1,1.9,1,664babd04754ce9f840d34ed,2634,1,2,77,18,2,fieldSmooth,8
,11,0.098716,Hue-3 with Wave-3,,1,0,12.639530661060668,0.0421850167777207,,3,,689,2,1.1,1.9,1,664babd04754ce9f840d34ed,17073,1,6,77,19,1,fieldSmooth,8
,11,0.098716,Hue-3 with Wave-3,,1,0,12.639530661060668,0.0969551208612819,,3,,478,2,1.1,1.9,1,664babd04754ce9f840d34ed,2209,1,1,77,20,2,fieldSmooth,8
,12,0.098716,Hue-7 with Wave-0,,1,0,38.457063684530354,0.0658538480803509,,3,,669,1,1.1,1.9,1,664babd04754ce9f840d34ed,15164,0,5,77,21,1,fieldSmooth,8
,12,0.098716,Hue-7 with Wave-0,,1,0,38.457063684530354,0.0557497714707612,,3,,557,1,1.1,1.9,1,664babd04754ce9f840d34ed,3925,0,3,77,22,2,fieldSmooth,8
,13,0.098716,Hue-0 with Wave-5,,1,0,0.0,0.0804924092647375,,3,,667,1,1.1,1.9,1,664babd04754ce9f840d34ed,7183,0,1,77,23,1,fieldSmooth,8
,13,0.098716,Hue-0 with Wave-5,,1,0,0.0,0.0654476189785813,,3,,480,2,1.1,1.9,1,664babd04754ce9f840d34ed,2227,1,1,77,24,2,fieldSmooth,8
,14,0.098716,Hue-7 with Wave-6,,1,0,38.457063684530354,0.058760663912306,,3,,672,2,1.1,1.9,1,664babd04754ce9f840d34ed,6313,1,4,77,25,1,fieldSmooth,8
,14,0.098716,Hue-7 with Wave-6,,1,0,38.457063684530354,0.1264707758921466,,3,,491,1,1.1,1.9,1,664babd04754ce9f840d34ed,23242,0,1,77,26,2,fieldSmooth,8
,15,0.098716,Hue-0 with Wave-3,,1,0,0.0,0.0647817462176362,,3,,631,1,1.1,1.9,1,664babd04754ce9f840d34ed,9982,0,6,77,27,1,fieldSmooth,8
,15,0.098716,Hue-0 with Wave-3,,1,0,0.0,0.0400249147405821,,3,,484,1,1.1,1.9,1,664babd04754ce9f840d34ed,4315,0,6,77,28,2,fieldSmooth,8
,17,0.098716,Hue-7 with Wave-5,,1,0,38.457063684530354,0.0677429270790055,,3,,715,2,1.1,1.9,1,664babd04754ce9f840d34ed,6649,1,1,77,29,1,fieldSmooth,8
,17,0.098716,Hue-7 with Wave-5,,1,0,38.457063684530354,0.0646320607109886,,3,,546,1,1.1,1.9,1,664babd04754ce9f840d34ed,11909,0,4,77,30,2,fieldSmooth,8
,18,0.098716,Hue-7 with Wave-4,,1,0,38.457063684530354,0.0514319442817109,,3,,686,1,1.1,1.9,1,664babd04754ce9f840d34ed,7433,0,2,77,31,1,fieldSmooth,8
,18,0.098716,Hue-7 with Wave-4,,1,0,38.457063684530354,0.0700205834275084,,3,,517,1,1.1,1.9,1,664babd04754ce9f840d34ed,3799,0,6,77,32,2,fieldSmooth,8
,19,0.098716,Hue-0 with Wave-4,,1,0,0.0,0.1128178495683457,,3,,479,1,1.1,1.9,1,664babd04754ce9f840d34ed,17199,0,3,77,33,1,fieldSmooth,8
,19,0.098716,Hue-0 with Wave-4,,1,0,0.0,0.0522262209145888,,3,,517,1,1.1,1.9,1,664babd04754ce9f840d34ed,4346,0,6,77,34,2,fieldSmooth,8
,20,0.098716,Hue-7 with Wave-3,,1,0,38.457063684530354,0.0476073575777425,,3,,678,2,1.1,1.9,1,664babd04754ce9f840d34ed,15741,1,5,77,35,1,fieldSmooth,8
,20,0.098716,Hue-7 with Wave-3,,1,0,38.457063684530354,0.1439608788033493,,3,,479,2,1.1,1.9,1,664babd04754ce9f840d34ed,4683,1,6,77,36,2,fieldSmooth,8
,21,0.098716,Hue-3 with Wave-7,,1,0,12.639530661060668,0.0825043540837589,,3,,669,2,1.1,1.9,1,664babd04754ce9f840d34ed,4975,1,3,77,37,1,fieldSmooth,8
,21,0.098716,Hue-3 with Wave-7,,1,0,12.639530661060668,0.0663049456532684,,3,,510,2,1.1,1.9,1,664babd04754ce9f840d34ed,7418,1,2,77,38,2,fieldSmooth,8
,22,0.098716,Hue-5 with Wave-4,,1,0,54.1086153142376,0.0750835413416087,,3,,670,1,1.1,1.9,1,664babd04754ce9f840d34ed,11726,0,4,77,39,1,fieldSmooth,8
,22,0.098716,Hue-5 with Wave-4,,1,0,54.1086153142376,0.1197871355187006,,3,,503,1,1.1,1.9,1,664babd04754ce9f840d34ed,6639,0,2,77,40,2,fieldSmooth,8
,23,0.098716,Hue-5 with Wave-5,,1,0,54.1086153142376,0.0514164527166796,,3,,604,1,1.1,1.9,1,664babd04754ce9f840d34ed,27302,0,2,77,41,1,fieldSmooth,8
,23,0.098716,Hue-5 with Wave-5,,1,0,54.1086153142376,0.075841882562673,,3,,519,2,1.1,1.9,1,664babd04754ce9f840d34ed,2821,1,3,77,42,2,fieldSmooth,8
,24,0.098716,Hue-5 with Wave-3,,1,0,54.1086153142376,0.1182676310516966,,3,,649,1,1.1,1.9,1,664babd04754ce9f840d34ed,4725,0,4,77,43,1,fieldSmooth,8
,24,0.098716,Hue-5 with Wave-3,,1,0,54.1086153142376,0.0628818653190716,,3,,516,2,1.1,1.9,1,664babd04754ce9f840d34ed,2547,1,5,77,44,2,fieldSmooth,8
,25,0.098716,Hue-0 with Wave-8,,1,0,0.0,0.0814349948930358,,3,,677,2,1.1,1.9,1,664babd04754ce9f840d34ed,16394,1,6,77,45,1,fieldSmooth,8
,25,0.098716,Hue-0 with Wave-8,,1,0,0.0,0.0633575491104336,,3,,485,1,1.1,1.9,1,664babd04754ce9f840d34ed,4398,0,2,77,46,2,fieldSmooth,8
,26,0.098716,Hue-7 with Wave-9,,1,0,38.457063684530354,0.0644322443751975,,3,,700,1,1.1,1.9,1,664babd04754ce9f840d34ed,4003,0,1,77,47,1,fieldSmooth,8
,26,0.098716,Hue-7 with Wave-9,,1,0,38.457063684530354,0.0669146340335151,,3,,524,1,1.1,1.9,1,664babd04754ce9f840d34ed,9776,0,5,77,48,2,fieldSmooth,8
,27,0.098716,Hue-3 with Wave-1,,1,0,12.639530661060668,0.1074003616590976,,3,,571,2,1.1,1.9,1,664babd04754ce9f840d34ed,3024,1,5,77,49,1,fieldSmooth,8
,27,0.098716,Hue-3 with Wave-1,,1,0,12.639530661060668,0.097097874485389,,3,,474,2,1.1,1.9,1,664babd04754ce9f840d34ed,10069,1,3,77,50,2,fieldSmooth,8
,28,0.098716,Hue-5 with Wave-1,,1,0,54.1086153142376,0.0761226206630764,,3,,747,2,1.1,1.9,1,664babd04754ce9f840d34ed,4169,1,2,77,51,1,fieldSmooth,8
,28,0.098716,Hue-5 with Wave-1,,1,0,54.1086153142376,0.0849876461807559,,3,,490,2,1.1,1.9,1,664babd04754ce9f840d34ed,5215,1,5,77,52,2,fieldSmooth,8
,29,0.098716,Hue-5 with Wave-0,,1,0,54.1086153142376,0.0941762168182717,,3,,646,1,1.1,1.9,1,664babd04754ce9f840d34ed,4437,0,4,77,53,1,fieldSmooth,8
,29,0.098716,Hue-5 with Wave-0,,1,0,54.1086153142376,0.083030115616279,,3,,536,1,1.1,1.9,1,664babd04754ce9f840d34ed,5946,0,4,77,54,2,fieldSmooth,8
,30,0.098716,Hue-5 with Wave-2,,1,0,54.1086153142376,0.0708543938775355,,3,,659,2,1.1,1.9,1,664babd04754ce9f840d34ed,17481,1,6,77,55,1,fieldSmooth,8
,30,0.098716,Hue-5 with Wave-2,,1,0,54.1086153142376,0.0636144686013704,,3,,516,1,1.1,1.9,1,664babd04754ce9f840d34ed,7866,0,5,77,56,2,fieldSmooth,8
,31,0.098716,Hue-0 with Wave-6,,1,0,0.0,0.0613984721395056,,3,,619,1,1.1,1.9,1,664babd04754ce9f840d34ed,6356,0,2,77,57,1,fieldSmooth,8
,31,0.098716,Hue-0 with Wave-6,,1,0,0.0,0.055539565598938,,3,,496,1,1.1,1.9,1,664babd04754ce9f840d34ed,9117,0,6,77,58,2,fieldSmooth,8
,32,0.098716,Hue-3 with Wave-9,,1,0,12.639530661060668,0.0903176897217039,,3,,711,1,1.1,1.9,1,664babd04754ce9f840d34ed,10434,0,6,77,59,1,fieldSmooth,8
,32,0.098716,Hue-3 with Wave-9,,1,0,12.639530661060668,0.0646843593370593,,3,,539,2,1.1,1.9,1,664babd04754ce9f840d34ed,2694,1,2,77,60,2,fieldSmooth,8
,33,0.098716,Hue-3 with Wave-8,,1,0,12.639530661060668,0.102566293611545,,3,,697,1,1.1,1.9,1,664babd04754ce9f840d34ed,14398,0,4,77,61,1,fieldSmooth,8
,33,0.098716,Hue-3 with Wave-8,,1,0,12.639530661060668,0.1077179137111252,,3,,490,1,1.1,1.9,1,664babd04754ce9f840d34ed,4100,0,2,77,62,2,fieldSmooth,8
,34,0.098716,Hue-0 with Wave-1,,1,0,0.0,0.0513124875555872,,3,,640,2,1.1,1.9,1,664babd04754ce9f840d34ed,9828,1,2,77,63,1,fieldSmooth,8
,34,0.098716,Hue-0 with Wave-1,,1,0,0.0,0.0734509646563393,,3,,506,2,1.1,1.9,1,664babd04754ce9f840d34ed,2738,1,2,77,64,2,fieldSmooth,8
,35,0.098716,Hue-3 with Wave-6,,1,0,12.639530661060668,0.0734376297348073,,3,,637,1,1.1,1.9,1,664babd04754ce9f840d34ed,5389,0,3,77,65,1,fieldSmooth,8
,35,0.098716,Hue-3 with Wave-6,,1,0,12.639530661060668,0.1146531353366215,,3,,476,2,1.1,1.9,1,664babd04754ce9f840d34ed,7453,1,3,77,66,2,fieldSmooth,8
,36,0.098716,Hue-5 with Wave-8,,1,0,54.1086153142376,0.0816328267299681,,3,,635,2,1.1,1.9,1,664babd04754ce9f840d34ed,20716,1,3,77,67,1,fieldSmooth,8
,36,0.098716,Hue-5 with Wave-8,,1,0,54.1086153142376,0.060250568285807,,3,,509,1,1.1,1.9,1,664babd04754ce9f840d34ed,14108,0,6,77,68,2,fieldSmooth,8
,37,0.098716,Hue-0 with Wave-9,,1,0,0.0,0.105683206496724,,3,,708,2,1.1,1.9,1,664babd04754ce9f840d34ed,5951,1,3,77,69,1,fieldSmooth,8
,37,0.098716,Hue-0 with Wave-9,,1,0,0.0,0.0664017528301275,,3,,514,2,1.1,1.9,1,664babd04754ce9f840d34ed,9480,1,2,77,70,2,fieldSmooth,8
,39,0.098716,Hue-7 with Wave-2,,1,0,38.457063684530354,0.1520690302158018,,3,,631,1,1.1,1.9,1,664babd04754ce9f840d34ed,9612,0,2,77,71,1,fieldSmooth,8
,39,0.098716,Hue-7 with Wave-2,,1,0,38.457063684530354,0.0909536932973559,,3,,503,1,1.1,1.9,1,664babd04754ce9f840d34ed,7044,0,5,77,72,2,fieldSmooth,8
,40,0.098716,Hue-7 with Wave-7,,1,0,38.457063684530354,0.0678017114361378,,3,,681,1,1.1,1.9,1,664babd04754ce9f840d34ed,5803,0,3,77,73,1,fieldSmooth,8
,40,0.098716,Hue-7 with Wave-7,,1,0,38.457063684530354,0.0766464647016754,,3,,524,2,1.1,1.9,1,664babd04754ce9f840d34ed,4721,1,6,77,74,2,fieldSmooth,8
,41,0.098716,Hue-7 with Wave-1,,1,0,38.457063684530354,0.0703000846051903,,3,,678,2,1.1,1.9,1,664babd04754ce9f840d34ed,5465,1,3,77,75,1,fieldSmooth,8
,41,0.098716,Hue-7 with Wave-1,,1,0,38.457063684530354,0.0653422916472892,,3,,494,2,1.1,1.9,1,664babd04754ce9f840d34ed,7629,1,6,77,76,2,fieldSmooth,8
,42,0.098716,Hue-0 with Wave-7,,1,0,0.0,0.1030541719423881,,3,,572,1,1.1,1.9,1,664babd04754ce9f840d34ed,4177,0,6,77,77,1,fieldSmooth,8
,42,0.098716,Hue-0 with Wave-7,,1,0,0.0,0.0895867357318398,,3,,494,2,1.1,1.9,1,664babd04754ce9f840d34ed,3716,1,4,77,78,2,fieldSmooth,8
,1,0.098716,Hue-5 with Wave-4,,1,0,21.38375060517692,0.092900756724277,,2,,1046,2,1.1,1.9,1,6679af725f681821b6bc1328,7538,1,6,74,1,1,fieldSmooth,9
,1,0.098716,Hue-5 with Wave-4,,1,0,21.38375060517692,0.0826869193598253,,2,,1000,2,1.1,1.9,1,6679af725f681821b6bc1328,7131,1,3,74,2,2,fieldSmooth,9
,2,0.098716,Hue-7 with Wave-4,,1,0,4.488760760577306,0.1087776464954727,,2,,1008,1,1.1,1.9,1,6679af725f681821b6bc1328,6422,0,1,74,3,1,fieldSmooth,9
,2,0.098716,Hue-7 with Wave-4,,1,0,4.488760760577306,0.0970643751707555,,2,,954,2,1.1,1.9,1,6679af725f681821b6bc1328,5122,1,6,74,4,2,fieldSmooth,9
,3,0.098716,Hue-7 with Wave-8,,1,0,4.488760760577306,0.0981638588449601,,2,,1105,1,1.1,1.9,1,6679af725f681821b6bc1328,3920,0,5,74,5,1,fieldSmooth,9
,3,0.098716,Hue-7 with Wave-8,,1,0,4.488760760577306,0.112290384284117,,2,,890,1,1.1,1.9,1,6679af725f681821b6bc1328,4686,0,1,74,6,2,fieldSmooth,9
,4,0.098716,Hue-3 with Wave-9,,1,0,2.3550213924544483,0.0564526121122605,,2,,1205,2,1.1,1.9,1,6679af725f681821b6bc1328,3533,1,3,74,7,1,fieldSmooth,9
,4,0.098716,Hue-3 with Wave-9,,1,0,2.3550213924544483,0.1024600615955099,,2,,1015,1,1.1,1.9,1,6679af725f681821b6bc1328,22287,0,6,74,8,2,fieldSmooth,9
,5,0.098716,Hue-0 with Wave-2,,0,0,0.0,0.04879106961675,,2,,1161,0,1.1,1.9,1,6679af725f681821b6bc1328,25863,-1,1,74,9,1,fieldSmooth,9
,5,0.098716,Hue-0 with Wave-2,,1,0,0.0,0.0664101132529709,,2,,937,1,1.1,1.9,1,6679af725f681821b6bc1328,9088,0,4,74,10,2,fieldSmooth,9
,6,0.098716,Hue-3 with Wave-3,,1,0,2.3550213924544483,0.086658119224755,,2,,1104,2,1.1,1.9,1,6679af725f681821b6bc1328,4789,1,3,74,11,1,fieldSmooth,9
,6,0.098716,Hue-3 with Wave-3,,1,0,2.3550213924544483,0.0595194900667384,,2,,962,2,1.1,1.9,1,6679af725f681821b6bc1328,13542,1,1,74,12,2,fieldSmooth,9
,7,0.098716,Hue-0 with Wave-1,,1,0,0.0,0.0720549920640704,,2,,1001,2,1.1,1.9,1,6679af725f681821b6bc1328,51104,1,1,74,13,1,fieldSmooth,9
,7,0.098716,Hue-0 with Wave-1,,1,0,0.0,0.0405360927592152,,2,,1013,2,1.1,1.9,1,6679af725f681821b6bc1328,6217,1,1,74,14,2,fieldSmooth,9
,8,0.098716,Hue-0 with Wave-7,,1,0,0.0,0.0779516418082545,,2,,1025,1,1.1,1.9,1,6679af725f681821b6bc1328,4840,0,1,74,15,1,fieldSmooth,9
,8,0.098716,Hue-0 with Wave-7,,1,0,0.0,0.0725101742072133,,2,,914,1,1.1,1.9,1,6679af725f681821b6bc1328,3387,0,5,74,16,2,fieldSmooth,9
,9,0.098716,Hue-3 with Wave-5,,1,0,2.3550213924544483,0.0577042648327041,,2,,1196,1,1.1,1.9,1,6679af725f681821b6bc1328,7127,0,2,74,17,1,fieldSmooth,9
