age,blockNum,center,colormap,completionCode,correct,correlation,currentOffsets,distance,education,engagementCorrect,gender,generationTime,modelChoice,noiseAmplitude,noisePerturb,noisePerturbCount,prolificId,responseTime,selectedDecoyType,selection,stimulusCorrect,stimulusNum,trialNum,vis,subjectid,categorization,ciede2000_discriminative_power,contrast_sensitivity_discriminative_power,hue_discriminative_power,luminance_variation,lab_length,color_name_variation,chromatic_variation
35-44,1,0.098716,Hue-5 with Wave-3,,0,0,43.48809406996964,0.0754116844418864,high_school,3,male,1346,0,1.1,1.9,1,5a381de00006450001bf2691,18052,-1,5,75,1,1,fieldSmooth,1,481.278,151.640,260.012,222.396,221.229,NaN,2.835,211.958
35-44,1,0.098716,Hue-5 with Wave-3,,1,0,43.48809406996964,0.0790680335264571,high_school,3,male,1038,2,1.1,1.9,1,5a381de00006450001bf2691,4977,1,2,75,2,2,fieldSmooth,1,481.278,151.640,260.012,222.396,221.229,NaN,2.835,211.958
35-44,2,0.098716,Hue-7 with Wave-9,,1,0,48.9271395181075,0.1216564098251199,high_school,3,male,2077,2,1.1,1.9,1,5a381de00006450001bf2691,10287,1,4,75,3,1,fieldSmooth,1,1383.719,210.842,337.417,298.246,645.660,NaN,5.585,383.323
35-44,2,0.098716,Hue-7 with Wave-9,,1,0,48.9271395181075,0.117302064798291,high_school,3,male,1029,1,1.1,1.9,1,5a381de00006450001bf2691,6074,0,1,75,4,2,fieldSmooth,1,1383.719,210.842,337.417,298.246,645.660,NaN,5.585,383.323
35-44,3,0.098716,Hue-7 with Wave-8,,1,0,48.9271395181075,0.0582462086814396,high_school,3,male,2103,1,1.1,1.9,1,5a381de00006450001bf2691,12805,0,5,75,5,1,fieldSmooth,1,1367.338,204.502,335.468,285.366,597.676,NaN,7.534,340.786
35-44,3,0.098716,Hue-7 with Wave-8,,1,0,48.9271395181075,0.0763654491532991,high_school,3,male,1178,2,1.1,1.9,1,5a381de00006450001bf2691,6589,1,3,75,6,2,fieldSmooth,1,1367.338,204.502,335.468,285.366,597.676,NaN,7.534,340.786
35-44,4,0.098716,Hue-7 with Wave-5,,1,0,48.9271395181075,0.0900162516298092,high_school,3,male,1994,2,1.1,1.9,1,5a381de00006450001bf2691,3991,1,2,75,7,1,fieldSmooth,1,1017.101,187.245,301.978,292.341,359.671,NaN,5.351,328.696
35-44,4,0.098716,Hue-7 with Wave-5,,1,0,48.9271395181075,0.0496113002198905,high_school,3,male,1055,2,1.1,1.9,1,5a381de00006450001bf2691,4219,1,6,75,8,2,fieldSmooth,1,1017.101,187.245,301.978,292.341,359.671,NaN,5.351,328.696
35-44,6,0.098716,Hue-5 with Wave-7,,1,0,43.48809406996964,0.0880089073704449,high_school,3,male,1991,2,1.1,1.9,1,5a381de00006450001bf2691,13081,1,6,75,11,1,fieldSmooth,1,749.262,184.327,314.465,221.635,507.167,NaN,3.872,310.683
35-44,6,0.098716,Hue-5 with Wave-7,,1,0,43.48809406996964,0.075563198054865,high_school,3,male,966,2,1.1,1.9,1,5a381de00006450001bf2691,4428,1,3,75,12,2,fieldSmooth,1,749.262,184.327,314.465,221.635,507.167,NaN,3.872,310.683
35-44,7,0.098716,Hue-3 with Wave-3,,1,0,0.7178951735859784,0.0499267245508108,high_school,3,male,1929,2,1.1,1.9,1,5a381de00006450001bf2691,7756,1,4,75,13,1,fieldSmooth,1,195.197,124.103,236.929,131.960,221.574,NaN,1.742,109.841
35-44,7,0.098716,Hue-3 with Wave-3,,1,0,0.7178951735859784,0.0817289061033625,high_school,3,male,1075,2,1.1,1.9,1,5a381de00006450001bf2691,13519,1,6,75,14,2,fieldSmooth,1,195.197,124.103,236.929,131.960,221.574,NaN,1.742,109.841
35-44,8,0.098716,Hue-7 with Wave-7,,0,0,48.9271395181075,0.0677092152794661,high_school,3,male,1870,0,1.1,1.9,1,5a381de00006450001bf2691,7559,-1,1,75,15,1,fieldSmooth,1,1022.689,200.519,323.211,287.499,499.454,NaN,5.184,354.811
35-44,8,0.098716,Hue-7 with Wave-7,,1,0,48.9271395181075,0.086298514876018,high_school,3,male,986,2,1.1,1.9,1,5a381de00006450001bf2691,8218,1,4,75,16,2,fieldSmooth,1,1022.689,200.519,323.211,287.499,499.454,NaN,5.184,354.811
35-44,11,0.098716,Hue-3 with Wave-6,,1,0,0.7178951735859784,0.0637360884210933,high_school,3,male,1989,2,1.1,1.9,1,5a381de00006450001bf2691,4725,1,5,75,21,1,fieldSmooth,1,440.039,152.900,288.039,124.160,446.194,NaN,3.183,238.583
35-44,11,0.098716,Hue-3 with Wave-6,,1,0,0.7178951735859784,0.0458962398398316,high_school,3,male,1079,2,1.1,1.9,1,5a381de00006450001bf2691,4648,1,1,75,22,2,fieldSmooth,1,440.039,152.900,288.039,124.160,446.194,NaN,3.183,238.583
35-44,13,0.098716,Hue-3 with Wave-4,,1,0,0.7178951735859784,0.1109620311349742,high_school,3,male,1940,2,1.1,1.9,1,5a381de00006450001bf2691,5600,1,1,75,25,1,fieldSmooth,1,387.910,136.069,264.568,122.552,302.914,NaN,5.445,124.810
35-44,13,0.098716,Hue-3 with Wave-4,,1,0,0.7178951735859784,0.0713588758407002,high_school,3,male,1017,2,1.1,1.9,1,5a381de00006450001bf2691,3578,1,2,75,26,2,fieldSmooth,1,387.910,136.069,264.568,122.552,302.914,NaN,5.445,124.810
35-44,15,0.098716,Hue-7 with Wave-3,,1,0,48.9271395181075,0.0930887882851698,high_school,3,male,1873,2,1.1,1.9,1,5a381de00006450001bf2691,12521,1,4,75,27,1,fieldSmooth,1,856.485,163.068,265.844,282.530,219.062,NaN,4.555,149.956
35-44,15,0.098716,Hue-7 with Wave-3,,1,0,48.9271395181075,0.052030554505982,high_school,3,male,1070,2,1.1,1.9,1,5a381de00006450001bf2691,14696,1,2,75,28,2,fieldSmooth,1,856.485,163.068,265.844,282.530,219.062,NaN,4.555,149.956
35-44,16,0.098716,Hue-5 with Wave-0,,1,0,43.48809406996964,0.0721268321988787,high_school,3,male,2047,2,1.1,1.9,1,5a381de00006450001bf2691,8224,1,5,75,29,1,fieldSmooth,1,529.540,94.932,128.179,195.615,25.259,NaN,1.974,105.416
35-44,16,0.098716,Hue-5 with Wave-0,,1,0,43.48809406996964,0.1029469100382042,high_school,3,male,870,2,1.1,1.9,1,5a381de00006450001bf2691,27808,1,1,75,30,2,fieldSmooth,1,529.540,94.932,128.179,195.615,25.259,NaN,1.974,105.416
35-44,17,0.098716,Hue-3 with Wave-1,,1,0,0.7178951735859784,0.0458709431485987,high_school,3,male,2213,2,1.1,1.9,1,5a381de00006450001bf2691,3853,1,2,75,31,1,fieldSmooth,1,199.610,79.521,165.294,102.733,80.037,NaN,0.395,44.185
35-44,17,0.098716,Hue-3 with Wave-1,,1,0,0.7178951735859784,0.069299233296103,high_school,3,male,987,2,1.1,1.9,1,5a381de00006450001bf2691,6057,1,5,75,32,2,fieldSmooth,1,199.610,79.521,165.294,102.733,80.037,NaN,0.395,44.185
35-44,19,0.098716,Hue-3 with Wave-7,,1,0,0.7178951735859784,0.063399888073667,high_school,3,male,1957,2,1.1,1.9,1,5a381de00006450001bf2691,10273,1,6,75,33,1,fieldSmooth,1,441.330,154.202,290.933,115.660,507.489,NaN,2.657,283.751
35-44,19,0.098716,Hue-3 with Wave-7,,1,0,0.7178951735859784,0.1162854039803736,high_school,3,male,1009,2,1.1,1.9,1,5a381de00006450001bf2691,6899,1,1,75,34,2,fieldSmooth,1,441.330,154.202,290.933,115.660,507.489,NaN,2.657,283.751
35-44,20,0.098716,Hue-3 with Wave-9,,1,0,0.7178951735859784,0.0695058443488073,high_school,3,male,1921,2,1.1,1.9,1,5a381de00006450001bf2691,5003,1,6,75,35,1,fieldSmooth,1,260.394,145.380,269.300,127.204,545.238,NaN,2.699,347.023
35-44,20,0.098716,Hue-3 with Wave-9,,1,0,0.7178951735859784,0.0536535817220095,high_school,3,male,1085,1,1.1,1.9,1,5a381de00006450001bf2691,6755,0,5,75,36,2,fieldSmooth,1,260.394,145.380,269.300,127.204,545.238,NaN,2.699,347.023
35-44,23,0.098716,Hue-7 with Wave-2,,1,0,48.9271395181075,0.110411794068585,high_school,3,male,2051,2,1.1,1.9,1,5a381de00006450001bf2691,4235,1,6,75,41,1,fieldSmooth,1,716.019,159.724,258.461,284.429,159.244,NaN,3.577,183.912
35-44,23,0.098716,Hue-7 with Wave-2,,1,0,48.9271395181075,0.0502227339531522,high_school,3,male,945,2,1.1,1.9,1,5a381de00006450001bf2691,14025,1,5,75,42,2,fieldSmooth,1,716.019,159.724,258.461,284.429,159.244,NaN,3.577,183.912
35-44,24,0.098716,Hue-5 with Wave-1,,1,0,43.48809406996964,0.0877541285154157,high_school,3,male,2134,2,1.1,1.9,1,5a381de00006450001bf2691,5374,1,1,75,43,1,fieldSmooth,1,483.926,111.761,191.859,202.566,78.744,NaN,1.968,128.282
35-44,24,0.098716,Hue-5 with Wave-1,,1,0,43.48809406996964,0.0512353946473422,high_school,3,male,958,2,1.1,1.9,1,5a381de00006450001bf2691,7120,1,5,75,44,2,fieldSmooth,1,483.926,111.761,191.859,202.566,78.744,NaN,1.968,128.282
35-44,25,0.098716,Hue-5 with Wave-4,,1,0,43.48809406996964,0.134178090860425,high_school,3,male,2091,1,1.1,1.9,1,5a381de00006450001bf2691,4746,0,3,75,45,1,fieldSmooth,1,542.862,157.001,275.713,203.203,301.393,NaN,5.142,243.138
35-44,25,0.098716,Hue-5 with Wave-4,,1,0,43.48809406996964,0.0484238117486831,high_school,3,male,1050,2,1.1,1.9,1,5a381de00006450001bf2691,3544,1,6,75,46,2,fieldSmooth,1,542.862,157.001,275.713,203.203,301.393,NaN,5.142,243.138
35-44,26,0.098716,Hue-7 with Wave-6,,0,0,48.9271395181075,0.1019818337498573,high_school,3,male,1964,0,1.1,1.9,1,5a381de00006450001bf2691,6218,-1,5,75,47,1,fieldSmooth,1,911.959,186.361,302.256,283.713,417.395,NaN,4.528,331.909
35-44,26,0.098716,Hue-7 with Wave-6,,1,0,48.9271395181075,0.0709345585905593,high_school,3,male,1043,1,1.1,1.9,1,5a381de00006450001bf2691,3752,0,3,75,48,2,fieldSmooth,1,911.959,186.361,302.256,283.713,417.395,NaN,4.528,331.909
35-44,27,0.098716,Hue-3 with Wave-8,,1,0,0.7178951735859784,0.1087783036545115,high_school,3,male,1858,1,1.1,1.9,1,5a381de00006450001bf2691,4198,0,6,75,49,1,fieldSmooth,1,363.882,155.401,292.072,120.340,554.656,NaN,6.536,256.105
35-44,27,0.098716,Hue-3 with Wave-8,,1,0,0.7178951735859784,0.0672968109764445,high_school,3,male,1088,2,1.1,1.9,1,5a381de00006450001bf2691,8780,1,3,75,50,2,fieldSmooth,1,363.882,155.401,292.072,120.340,554.656,NaN,6.536,256.105
35-44,28,0.098716,Hue-3 with Wave-2,,1,0,0.7178951735859784,0.1103652085675203,high_school,3,male,1935,2,1.1,1.9,1,5a381de00006450001bf2691,6292,1,2,75,51,1,fieldSmooth,1,185.411,110.840,217.029,121.055,154.008,NaN,2.238,74.453
35-44,28,0.098716,Hue-3 with Wave-2,,1,0,0.7178951735859784,0.0644349036702689,high_school,3,male,1034,2,1.1,1.9,1,5a381de00006450001bf2691,4270,1,6,75,52,2,fieldSmooth,1,185.411,110.840,217.029,121.055,154.008,NaN,2.238,74.453
35-44,29,0.098716,Hue-5 with Wave-5,,1,0,43.48809406996964,0.0866109563456442,high_school,3,male,1956,2,1.1,1.9,1,5a381de00006450001bf2691,4379,1,4,75,53,1,fieldSmooth,1,752.870,166.730,295.493,208.345,375.425,NaN,3.922,282.696
35-44,29,0.098716,Hue-5 with Wave-5,,1,0,43.48809406996964,0.1258791812454092,high_school,3,male,989,2,1.1,1.9,1,5a381de00006450001bf2691,9912,1,5,75,54,2,fieldSmooth,1,752.870,166.730,295.493,208.345,375.425,NaN,3.922,282.696
35-44,30,0.098716,Hue-5 with Wave-9,,1,0,43.48809406996964,0.1525443437160296,high_school,3,male,1942,1,1.1,1.9,1,5a381de00006450001bf2691,5288,0,6,75,55,1,fieldSmooth,1,717.168,197.174,329.209,233.705,633.341,NaN,3.885,378.879
35-44,30,0.098716,Hue-5 with Wave-9,,1,0,43.48809406996964,0.088700323032332,high_school,3,male,1022,1,1.1,1.9,1,5a381de00006450001bf2691,4295,0,1,75,56,2,fieldSmooth,1,717.168,197.174,329.209,233.705,633.341,NaN,3.885,378.879
35-44,32,0.098716,Hue-3 with Wave-5,,1,0,0.7178951735859784,0.0624146341105318,high_school,3,male,2042,2,1.1,1.9,1,5a381de00006450001bf2691,5728,1,1,75,57,1,fieldSmooth,1,205.904,142.792,268.649,137.750,362.408,NaN,2.399,184.040
35-44,32,0.098716,Hue-3 with Wave-5,,1,0,0.7178951735859784,0.1023054742608385,high_school,3,male,1024,1,1.1,1.9,1,5a381de00006450001bf2691,10870,0,1,75,58,2,fieldSmooth,1,205.904,142.792,268.649,137.750,362.408,NaN,2.399,184.040
35-44,33,0.098716,Hue-3 with Wave-0,,1,0,0.7178951735859784,0.100183426564088,high_school,3,male,2055,1,1.1,1.9,1,5a381de00006450001bf2691,5357,0,5,75,59,1,fieldSmooth,1,0.000,36.873,54.589,86.182,13.505,NaN,0.398,30.697
35-44,33,0.098716,Hue-3 with Wave-0,,1,0,0.7178951735859784,0.0787902400781277,high_school,3,male,1007,1,1.1,1.9,1,5a381de00006450001bf2691,12955,0,6,75,60,2,fieldSmooth,1,0.000,36.873,54.589,86.182,13.505,NaN,0.398,30.697
35-44,34,0.098716,Hue-7 with Wave-0,,1,0,48.9271395181075,0.0544864611056483,high_school,3,male,1999,1,1.1,1.9,1,5a381de00006450001bf2691,16137,0,6,75,61,1,fieldSmooth,1,826.768,136.254,175.553,278.441,38.804,NaN,3.999,129.034
35-44,34,0.098716,Hue-7 with Wave-0,,1,0,48.9271395181075,0.0783134265985564,high_school,3,male,978,1,1.1,1.9,1,5a381de00006450001bf2691,10718,0,6,75,62,2,fieldSmooth,1,826.768,136.254,175.553,278.441,38.804,NaN,3.999,129.034
35-44,35,0.098716,Hue-7 with Wave-4,,1,0,48.9271395181075,0.0821248685187393,high_school,3,male,2108,1,1.1,1.9,1,5a381de00006450001bf2691,4020,0,3,75,63,1,fieldSmooth,1,682.505,178.292,288.368,294.507,303.614,NaN,5.064,218.314
35-44,35,0.098716,Hue-7 with Wave-4,,1,0,48.9271395181075,0.0409339781297434,high_school,3,male,972,1,1.1,1.9,1,5a381de00006450001bf2691,9176,0,1,75,64,2,fieldSmooth,1,682.505,178.292,288.368,294.507,303.614,NaN,5.064,218.314
35-44,36,0.098716,Hue-5 with Wave-6,,1,0,43.48809406996964,0.0625537162341404,high_school,3,male,2106,1,1.1,1.9,1,5a381de00006450001bf2691,5489,0,2,75,65,1,fieldSmooth,1,777.737,172.934,299.126,211.032,444.492,NaN,4.212,251.011
35-44,36,0.098716,Hue-5 with Wave-6,,1,0,43.48809406996964,0.0638775003069307,high_school,3,male,1066,2,1.1,1.9,1,5a381de00006450001bf2691,4646,1,3,75,66,2,fieldSmooth,1,777.737,172.934,299.126,211.032,444.492,NaN,4.212,251.011
35-44,37,0.098716,Hue-5 with Wave-2,,1,0,43.48809406996964,0.0814336607007642,high_school,3,male,2004,2,1.1,1.9,1,5a381de00006450001bf2691,4331,1,1,75,67,1,fieldSmooth,1,383.867,132.518,236.046,206.193,155.581,NaN,3.091,138.542
35-44,37,0.098716,Hue-5 with Wave-2,,1,0,43.48809406996964,0.0486523468713595,high_school,3,male,1137,2,1.1,1.9,1,5a381de00006450001bf2691,7355,1,1,75,68,2,fieldSmooth,1,383.867,132.518,236.046,206.193,155.581,NaN,3.091,138.542
35-44,39,0.098716,Hue-7 with Wave-1,,1,0,48.9271395181075,0.0648262386940066,high_school,3,male,1937,1,1.1,1.9,1,5a381de00006450001bf2691,6646,0,1,75,71,1,fieldSmooth,1,682.872,135.461,208.565,278.159,76.398,NaN,3.754,162.844
35-44,39,0.098716,Hue-7 with Wave-1,,1,0,48.9271395181075,0.0621384476037575,high_school,3,male,999,2,1.1,1.9,1,5a381de00006450001bf2691,3892,1,4,75,72,2,fieldSmooth,1,682.872,135.461,208.565,278.159,76.398,NaN,3.754,162.844
35-44,40,0.098716,Hue-5 with Wave-8,,1,0,43.48809406996964,0.0974247828692175,high_school,3,male,2053,2,1.1,1.9,1,5a381de00006450001bf2691,3355,1,4,75,73,1,fieldSmooth,1,1024.959,180.543,317.588,213.748,589.747,NaN,7.354,256.712
35-44,40,0.098716,Hue-5 with Wave-8,,1,0,43.48809406996964,0.0584855721850902,high_school,3,male,1152,1,1.1,1.9,1,5a381de00006450001bf2691,5999,0,3,75,74,2,fieldSmooth,1,1024.959,180.543,317.588,213.748,589.747,NaN,7.354,256.712
35-44,1,0.098716,Hue-7 with Wave-9,,1,0,47.19109842023962,0.0785516543983891,high_school,3,male,1269,1,1.1,1.9,1,5bcd315d0f10750001d7f22e,9043,0,5,77,1,1,fieldSmooth,2,1553.347,211.103,337.679,298.060,646.910,NaN,5.596,384.991
35-44,1,0.098716,Hue-7 with Wave-9,,1,0,47.19109842023962,0.0925407567744066,high_school,3,male,1168,2,1.1,1.9,1,5bcd315d0f10750001d7f22e,11135,1,5,77,2,2,fieldSmooth,2,1553.347,211.103,337.679,298.060,646.910,NaN,5.596,384.991
35-44,2,0.098716,Hue-5 with Wave-0,,1,0,8.478160530821302,0.0653521744162614,high_school,3,male,1476,1,1.1,1.9,1,5bcd315d0f10750001d7f22e,5160,0,5,77,3,1,fieldSmooth,2,418.158,86.100,113.558,194.657,20.599,NaN,2.079,76.516
35-44,2,0.098716,Hue-5 with Wave-0,,1,0,8.478160530821302,0.0431308773047348,high_school,3,male,1526,1,1.1,1.9,1,5bcd315d0f10750001d7f22e,5044,0,6,77,4,2,fieldSmooth,2,418.158,86.100,113.558,194.657,20.599,NaN,2.079,76.516
35-44,4,0.098716,Hue-7 with Wave-7,,1,0,47.19109842023962,0.1096167026186313,high_school,3,male,1561,1,1.1,1.9,1,5bcd315d0f10750001d7f22e,9669,0,2,77,7,1,fieldSmooth,2,1016.151,200.454,322.758,287.644,498.893,NaN,5.199,355.541
35-44,4,0.098716,Hue-7 with Wave-7,,1,0,47.19109842023962,0.0568020917483457,high_school,3,male,1227,1,1.1,1.9,1,5bcd315d0f10750001d7f22e,8787,0,4,77,8,2,fieldSmooth,2,1016.151,200.454,322.758,287.644,498.893,NaN,5.199,355.541
35-44,7,0.098716,Hue-5 with Wave-3,,1,0,8.478160530821302,0.0496929118007525,high_school,3,male,1479,1,1.1,1.9,1,5bcd315d0f10750001d7f22e,5030,0,4,77,11,1,fieldSmooth,2,512.597,147.212,263.844,204.605,231.411,NaN,3.131,128.621
35-44,7,0.098716,Hue-5 with Wave-3,,1,0,8.478160530821302,0.0760241400602276,high_school,3,male,1086,2,1.1,1.9,1,5bcd315d0f10750001d7f22e,7866,1,3,77,12,2,fieldSmooth,2,512.597,147.212,263.844,204.605,231.411,NaN,3.131,128.621
35-44,8,0.098716,Hue-7 with Wave-8,,1,0,47.19109842023962,0.0797381606220625,high_school,3,male,1255,1,1.1,1.9,1,5bcd315d0f10750001d7f22e,8089,0,5,77,13,1,fieldSmooth,2,1325.814,204.650,335.559,285.279,599.060,NaN,7.502,340.405
35-44,8,0.098716,Hue-7 with Wave-8,,1,0,47.19109842023962,0.0579291347930622,high_school,3,male,1309,1,1.1,1.9,1,5bcd315d0f10750001d7f22e,3407,0,6,77,14,2,fieldSmooth,2,1325.814,204.650,335.559,285.279,599.060,NaN,7.502,340.405
35-44,9,0.098716,Hue-7 with Wave-0,,1,0,47.19109842023962,0.0631998482150404,high_school,3,male,1430,1,1.1,1.9,1,5bcd315d0f10750001d7f22e,5333,0,3,77,15,1,fieldSmooth,2,803.142,136.277,175.395,278.404,38.732,NaN,4.109,126.404
35-44,9,0.098716,Hue-7 with Wave-0,,1,0,47.19109842023962,0.1115478173472329,high_school,3,male,1096,1,1.1,1.9,1,5bcd315d0f10750001d7f22e,4834,0,6,77,16,2,fieldSmooth,2,803.142,136.277,175.395,278.404,38.732,NaN,4.109,126.404
35-44,10,0.098716,Hue-3 with Wave-7,,1,0,2.9275678782354664,0.06124538643281,high_school,3,male,1664,1,1.1,1.9,1,5bcd315d0f10750001d7f22e,5478,0,6,77,17,1,fieldSmooth,2,325.320,153.259,290.517,114.192,506.020,NaN,2.708,289.035
35-44,10,0.098716,Hue-3 with Wave-7,,1,0,2.9275678782354664,0.097328421463927,high_school,3,male,1174,1,1.1,1.9,1,5bcd315d0f10750001d7f22e,4740,0,4,77,18,2,fieldSmooth,2,325.320,153.259,290.517,114.192,506.020,NaN,2.708,289.035
35-44,11,0.098716,Hue-3 with Wave-2,,1,0,2.9275678782354664,0.0561137212229005,high_school,3,male,1922,2,1.1,1.9,1,5bcd315d0f10750001d7f22e,5601,1,6,77,19,1,fieldSmooth,2,185.961,110.883,217.483,121.522,153.927,NaN,2.169,73.544
35-44,11,0.098716,Hue-3 with Wave-2,,1,0,2.9275678782354664,0.069183590139362,high_school,3,male,1167,1,1.1,1.9,1,5bcd315d0f10750001d7f22e,12390,0,3,77,20,2,fieldSmooth,2,185.961,110.883,217.483,121.522,153.927,NaN,2.169,73.544
35-44,13,0.098716,Hue-3 with Wave-1,,1,0,2.9275678782354664,0.0612490551517104,high_school,3,male,1447,1,1.1,1.9,1,5bcd315d0f10750001d7f22e,5334,0,4,77,23,1,fieldSmooth,2,0.000,80.195,165.997,103.248,80.031,NaN,0.356,47.951
35-44,13,0.098716,Hue-3 with Wave-1,,1,0,2.9275678782354664,0.0870102302635971,high_school,3,male,1145,2,1.1,1.9,1,5bcd315d0f10750001d7f22e,10562,1,3,77,24,2,fieldSmooth,2,0.000,80.195,165.997,103.248,80.031,NaN,0.356,47.951
35-44,14,0.098716,Hue-7 with Wave-3,,1,0,47.19109842023962,0.1048420764123966,high_school,3,male,1420,1,1.1,1.9,1,5bcd315d0f10750001d7f22e,7807,0,1,77,25,1,fieldSmooth,2,775.741,163.262,265.942,282.481,217.931,NaN,4.550,147.717
35-44,14,0.098716,Hue-7 with Wave-3,,1,0,47.19109842023962,0.0952061675600845,high_school,3,male,1131,1,1.1,1.9,1,5bcd315d0f10750001d7f22e,3877,0,2,77,26,2,fieldSmooth,2,775.741,163.262,265.942,282.481,217.931,NaN,4.550,147.717
35-44,15,0.098716,Hue-5 with Wave-6,,1,0,8.478160530821302,0.0806080090549829,high_school,3,male,1594,1,1.1,1.9,1,5bcd315d0f10750001d7f22e,4096,0,4,77,27,1,fieldSmooth,2,343.873,171.199,296.612,227.078,439.564,NaN,3.381,189.972
35-44,15,0.098716,Hue-5 with Wave-6,,1,0,8.478160530821302,0.056358971693209,high_school,3,male,1532,1,1.1,1.9,1,5bcd315d0f10750001d7f22e,14915,0,2,77,28,2,fieldSmooth,2,343.873,171.199,296.612,227.078,439.564,NaN,3.381,189.972
35-44,16,0.098716,Hue-3 with Wave-5,,1,0,2.9275678782354664,0.0575712182808366,high_school,3,male,2211,1,1.1,1.9,1,5bcd315d0f10750001d7f22e,3461,0,4,77,29,1,fieldSmooth,2,196.306,142.457,268.172,138.955,360.273,NaN,2.254,194.157
35-44,16,0.098716,Hue-3 with Wave-5,,1,0,2.9275678782354664,0.0970090488175032,high_school,3,male,1054,1,1.1,1.9,1,5bcd315d0f10750001d7f22e,4463,0,6,77,30,2,fieldSmooth,2,196.306,142.457,268.172,138.955,360.273,NaN,2.254,194.157
35-44,17,0.098716,Hue-7 with Wave-6,,1,0,47.19109842023962,0.0855670517386058,high_school,3,male,1507,1,1.1,1.9,1,5bcd315d0f10750001d7f22e,8032,0,2,77,31,1,fieldSmooth,2,927.230,186.420,301.995,284.164,415.283,NaN,4.550,334.013
35-44,17,0.098716,Hue-7 with Wave-6,,1,0,47.19109842023962,0.0934415521256612,high_school,3,male,1309,1,1.1,1.9,1,5bcd315d0f10750001d7f22e,51418,0,5,77,32,2,fieldSmooth,2,927.230,186.420,301.995,284.164,415.283,NaN,4.550,334.013
35-44,20,0.098716,Hue-3 with Wave-4,,1,0,2.9275678782354664,0.0614672899930818,high_school,3,male,1521,2,1.1,1.9,1,5bcd315d0f10750001d7f22e,3986,1,6,77,35,1,fieldSmooth,2,394.120,135.860,265.189,122.410,301.957,NaN,5.300,130.918
35-44,20,0.098716,Hue-3 with Wave-4,,1,0,2.9275678782354664,0.0856930705395625,high_school,3,male,1203,1,1.1,1.9,1,5bcd315d0f10750001d7f22e,8689,0,1,77,36,2,fieldSmooth,2,394.120,135.860,265.189,122.410,301.957,NaN,5.300,130.918
35-44,21,0.098716,Hue-7 with Wave-1,,1,0,47.19109842023962,0.0935783871178368,high_school,3,male,1322,1,1.1,1.9,1,5bcd315d0f10750001d7f22e,5908,0,4,77,37,1,fieldSmooth,2,693.866,134.923,206.849,277.792,76.186,NaN,3.735,151.050
35-44,21,0.098716,Hue-7 with Wave-1,,1,0,47.19109842023962,0.083966651631908,high_school,3,male,1191,1,1.1,1.9,1,5bcd315d0f10750001d7f22e,5151,0,4,77,38,2,fieldSmooth,2,693.866,134.923,206.849,277.792,76.186,NaN,3.735,151.050
35-44,23,0.098716,Hue-3 with Wave-0,,1,0,2.9275678782354664,0.0798195929267583,high_school,3,male,1180,2,1.1,1.9,1,5bcd315d0f10750001d7f22e,4558,1,3,77,41,1,fieldSmooth,2,59.040,38.833,56.129,88.012,14.332,NaN,0.894,32.196
35-44,23,0.098716,Hue-3 with Wave-0,,1,0,2.9275678782354664,0.0556287939378978,high_school,3,male,1066,2,1.1,1.9,1,5bcd315d0f10750001d7f22e,16428,1,4,77,42,2,fieldSmooth,2,59.040,38.833,56.129,88.012,14.332,NaN,0.894,32.196
35-44,24,0.098716,Hue-7 with Wave-2,,1,0,47.19109842023962,0.1135140270585628,high_school,3,male,1385,1,1.1,1.9,1,5bcd315d0f10750001d7f22e,8385,0,2,77,43,1,fieldSmooth,2,720.380,159.946,258.096,284.445,159.263,NaN,3.519,179.061
35-44,24,0.098716,Hue-7 with Wave-2,,1,0,47.19109842023962,0.0639395982181802,high_school,3,male,1341,2,1.1,1.9,1,5bcd315d0f10750001d7f22e,7831,1,4,77,44,2,fieldSmooth,2,720.380,159.946,258.096,284.445,159.263,NaN,3.519,179.061
35-44,25,0.098716,Hue-5 with Wave-7,,1,0,8.478160530821302,0.0834704465312208,high_school,3,male,1371,1,1.1,1.9,1,5bcd315d0f10750001d7f22e,11903,0,4,77,45,1,fieldSmooth,2,463.997,181.080,315.630,214.042,513.957,NaN,3.032,278.114
35-44,25,0.098716,Hue-5 with Wave-7,,1,0,8.478160530821302,0.0721251038513862,high_school,3,male,1190,2,1.1,1.9,1,5bcd315d0f10750001d7f22e,5366,1,6,77,46,2,fieldSmooth,2,463.997,181.080,315.630,214.042,513.957,NaN,3.032,278.114
35-44,26,0.098716,Hue-5 with Wave-5,,1,0,8.478160530821302,0.080742292644805,high_school,3,male,1529,1,1.1,1.9,1,5bcd315d0f10750001d7f22e,9460,0,1,77,47,1,fieldSmooth,2,580.622,168.995,294.881,225.542,373.251,NaN,3.569,184.027
35-44,26,0.098716,Hue-5 with Wave-5,,1,0,8.478160530821302,0.1182731684840713,high_school,3,male,1023,1,1.1,1.9,1,5bcd315d0f10750001d7f22e,9965,0,1,77,48,2,fieldSmooth,2,580.622,168.995,294.881,225.542,373.251,NaN,3.569,184.027
35-44,28,0.098716,Hue-3 with Wave-3,,1,0,2.9275678782354664,0.0725619290359805,high_school,3,male,1502,2,1.1,1.9,1,5bcd315d0f10750001d7f22e,23441,1,1,77,51,1,fieldSmooth,2,152.669,124.283,237.107,133.847,220.359,NaN,1.617,114.844
35-44,28,0.098716,Hue-3 with Wave-3,,1,0,2.9275678782354664,0.0748346740597035,high_school,3,male,1090,2,1.1,1.9,1,5bcd315d0f10750001d7f22e,5445,1,1,77,52,2,fieldSmooth,2,152.669,124.283,237.107,133.847,220.359,NaN,1.617,114.844
35-44,30,0.098716,Hue-5 with Wave-4,,1,0,8.478160530821302,0.0618730416156224,high_school,3,male,1198,2,1.1,1.9,1,5bcd315d0f10750001d7f22e,3708,1,1,77,53,1,fieldSmooth,2,504.867,158.397,281.782,206.797,308.158,NaN,4.515,189.529
35-44,30,0.098716,Hue-5 with Wave-4,,1,0,8.478160530821302,0.0528610263274938,high_school,3,male,1179,1,1.1,1.9,1,5bcd315d0f10750001d7f22e,17521,0,5,77,54,2,fieldSmooth,2,504.867,158.397,281.782,206.797,308.158,NaN,4.515,189.529
35-44,31,0.098716,Hue-5 with Wave-9,,1,0,8.478160530821302,0.1052301392338718,high_school,3,male,1475,1,1.1,1.9,1,5bcd315d0f10750001d7f22e,2617,0,4,77,55,1,fieldSmooth,2,771.469,189.232,329.284,210.256,657.098,NaN,3.149,349.294
35-44,31,0.098716,Hue-5 with Wave-9,,1,0,8.478160530821302,0.0789227205290361,high_school,3,male,1245,1,1.1,1.9,1,5bcd315d0f10750001d7f22e,3478,0,2,77,56,2,fieldSmooth,2,771.469,189.232,329.284,210.256,657.098,NaN,3.149,349.294
35-44,32,0.098716,Hue-5 with Wave-1,,1,0,8.478160530821302,0.0949194041592847,high_school,3,male,1307,2,1.1,1.9,1,5bcd315d0f10750001d7f22e,4550,1,6,77,57,1,fieldSmooth,2,441.906,105.501,188.744,203.117,79.920,NaN,1.817,106.143
35-44,32,0.098716,Hue-5 with Wave-1,,1,0,8.478160530821302,0.0747242683700801,high_school,3,male,1086,2,1.1,1.9,1,5bcd315d0f10750001d7f22e,4658,1,3,77,58,2,fieldSmooth,2,441.906,105.501,188.744,203.117,79.920,NaN,1.817,106.143
35-44,34,0.098716,Hue-5 with Wave-8,,1,0,8.478160530821302,0.1301184864522031,high_school,3,male,1414,1,1.1,1.9,1,5bcd315d0f10750001d7f22e,3043,0,6,77,61,1,fieldSmooth,2,991.274,171.511,311.908,206.575,601.198,NaN,7.050,180.420
35-44,34,0.098716,Hue-5 with Wave-8,,1,0,8.478160530821302,0.0541529366636271,high_school,3,male,1168,1,1.1,1.9,1,5bcd315d0f10750001d7f22e,13621,0,3,77,62,2,fieldSmooth,2,991.274,171.511,311.908,206.575,601.198,NaN,7.050,180.420
35-44,35,0.098716,Hue-7 with Wave-5,,1,0,47.19109842023962,0.0793720817455704,high_school,3,male,1315,1,1.1,1.9,1,5bcd315d0f10750001d7f22e,7639,0,5,77,63,1,fieldSmooth,2,1023.034,187.687,302.382,293.638,358.010,NaN,5.239,327.982
35-44,35,0.098716,Hue-7 with Wave-5,,1,0,47.19109842023962,0.0586558022740887,high_school,3,male,1182,1,1.1,1.9,1,5bcd315d0f10750001d7f22e,3119,0,1,77,64,2,fieldSmooth,2,1023.034,187.687,302.382,293.638,358.010,NaN,5.239,327.982
35-44,36,0.098716,Hue-3 with Wave-8,,1,0,2.9275678782354664,0.0545506180053069,high_school,3,male,1518,1,1.1,1.9,1,5bcd315d0f10750001d7f22e,17609,0,3,77,65,1,fieldSmooth,2,466.389,155.251,293.096,118.352,556.291,NaN,6.517,260.857
35-44,36,0.098716,Hue-3 with Wave-8,,1,0,2.9275678782354664,0.0690116607080457,high_school,3,male,1273,1,1.1,1.9,1,5bcd315d0f10750001d7f22e,4281,0,1,77,66,2,fieldSmooth,2,466.389,155.251,293.096,118.352,556.291,NaN,6.517,260.857
35-44,37,0.098716,Hue-5 with Wave-2,,1,0,8.478160530821302,0.0408919473347116,high_school,3,male,1605,2,1.1,1.9,1,5bcd315d0f10750001d7f22e,27987,1,2,77,67,1,fieldSmooth,2,387.049,127.766,230.212,201.548,158.361,NaN,2.643,82.696
35-44,37,0.098716,Hue-5 with Wave-2,,1,0,8.478160530821302,0.079464444724464,high_school,3,male,1117,2,1.1,1.9,1,5bcd315d0f10750001d7f22e,6110,1,6,77,68,2,fieldSmooth,2,387.049,127.766,230.212,201.548,158.361,NaN,2.643,82.696
35-44,40,0.098716,Hue-7 with Wave-4,,1,0,47.19109842023962,0.0906217073150718,high_school,3,male,1494,2,1.1,1.9,1,5bcd315d0f10750001d7f22e,8116,1,2,77,73,1,fieldSmooth,2,840.536,178.480,289.006,293.502,304.818,NaN,5.007,212.839
35-44,40,0.098716,Hue-7 with Wave-4,,1,0,47.19109842023962,0.0945241490106274,high_school,3,male,1246,1,1.1,1.9,1,5bcd315d0f10750001d7f22e,8833,0,5,77,74,2,fieldSmooth,2,840.536,178.480,289.006,293.502,304.818,NaN,5.007,212.839
35-44,41,0.098716,Hue-3 with Wave-9,,1,0,2.9275678782354664,0.0628679823567098,high_school,3,male,1536,2,1.1,1.9,1,5bcd315d0f10750001d7f22e,6417,1,2,77,75,1,fieldSmooth,2,270.729,146.037,269.763,128.319,543.583,NaN,2.653,353.796
35-44,41,0.098716,Hue-3 with Wave-9,,1,0,2.9275678782354664,0.0707613352862406,high_school,3,male,1103,1,1.1,1.9,1,5bcd315d0f10750001d7f22e,17818,0,1,77,76,2,fieldSmooth,2,270.729,146.037,269.763,128.319,543.583,NaN,2.653,353.796
35-44,42,0.098716,Hue-3 with Wave-6,,1,0,2.9275678782354664,0.0634529897547147,high_school,3,male,1448,1,1.1,1.9,1,5bcd315d0f10750001d7f22e,3397,0,6,77,77,1,fieldSmooth,2,443.575,152.575,288.498,122.828,445.769,NaN,3.152,252.647
35-44,42,0.098716,Hue-3 with Wave-6,,1,0,2.9275678782354664,0.0478359894789852,high_school,3,male,1175,1,1.1,1.9,1,5bcd315d0f10750001d7f22e,14305,0,1,77,78,2,fieldSmooth,2,443.575,152.575,288.498,122.828,445.769,NaN,3.152,252.647
65+,1,0.098716,Hue-5 with Wave-3,,1,0,6.338866799913041,0.0698392211634962,high_school,3,male,689,1,1.1,1.9,1,5c1ffe5295f978000173df84,9050,0,2,75,1,1,fieldSmooth,3,481.626,147.762,265.272,206.112,232.122,NaN,3.068,133.910
65+,1,0.098716,Hue-5 with Wave-3,,1,0,6.338866799913041,0.0534641287771864,high_school,3,male,714,1,1.1,1.9,1,5c1ffe5295f978000173df84,7972,0,6,75,2,2,fieldSmooth,3,481.626,147.762,265.272,206.112,232.122,NaN,3.068,133.910
65+,2,0.098716,Hue-7 with Wave-5,,1,0,55.21606057317763,0.1138367571905811,high_school,3,male,797,1,1.1,1.9,1,5c1ffe5295f978000173df84,6489,0,6,75,3,1,fieldSmooth,3,911.808,186.923,302.480,287.353,361.456,NaN,5.149,318.485
65+,2,0.098716,Hue-7 with Wave-5,,1,0,55.21606057317763,0.0631669449885263,high_school,3,male,636,1,1.1,1.9,1,5c1ffe5295f978000173df84,9497,0,2,75,4,2,fieldSmooth,3,911.808,186.923,302.480,287.353,361.456,NaN,5.149,318.485
65+,3,0.098716,Hue-7 with Wave-3,,1,0,55.21606057317763,0.1019588645452042,high_school,3,male,908,1,1.1,1.9,1,5c1ffe5295f978000173df84,4533,0,5,75,5,1,fieldSmooth,3,688.141,164.722,267.294,284.844,219.755,NaN,4.485,152.245
65+,3,0.098716,Hue-7 with Wave-3,,1,0,55.21606057317763,0.0552177365283706,high_school,3,male,725,1,1.1,1.9,1,5c1ffe5295f978000173df84,4270,0,6,75,6,2,fieldSmooth,3,688.141,164.722,267.294,284.844,219.755,NaN,4.485,152.245
65+,4,0.098716,Hue-5 with Wave-2,,1,0,6.338866799913041,0.0578462425353614,high_school,3,male,828,1,1.1,1.9,1,5c1ffe5295f978000173df84,5092,0,5,75,7,1,fieldSmooth,3,451.776,128.299,231.047,203.757,159.135,NaN,2.609,90.909
65+,4,0.098716,Hue-5 with Wave-2,,1,0,6.338866799913041,0.0804000769842057,high_school,3,male,637,1,1.1,1.9,1,5c1ffe5295f978000173df84,10779,0,1,75,8,2,fieldSmooth,3,451.776,128.299,231.047,203.757,159.135,NaN,2.609,90.909
65+,5,0.098716,Hue-7 with Wave-2,,1,0,55.21606057317763,0.0457058837969452,high_school,3,male,841,1,1.1,1.9,1,5c1ffe5295f978000173df84,12602,0,6,75,9,1,fieldSmooth,3,705.979,159.581,258.960,284.305,159.300,NaN,3.847,186.481
65+,5,0.098716,Hue-7 with Wave-2,,1,0,55.21606057317763,0.1016283837130043,high_school,3,male,657,1,1.1,1.9,1,5c1ffe5295f978000173df84,4558,0,5,75,10,2,fieldSmooth,3,705.979,159.581,258.960,284.305,159.300,NaN,3.847,186.481
65+,8,0.098716,Hue-7 with Wave-8,,1,0,55.21606057317763,0.0838234716938466,high_school,3,male,696,1,1.1,1.9,1,5c1ffe5295f978000173df84,4877,0,4,75,13,1,fieldSmooth,3,1344.987,204.139,334.468,285.741,594.128,NaN,7.502,322.982
65+,8,0.098716,Hue-7 with Wave-8,,1,0,55.21606057317763,0.0791014998618598,high_school,3,male,672,2,1.1,1.9,1,5c1ffe5295f978000173df84,5078,1,3,75,14,2,fieldSmooth,3,1344.987,204.139,334.468,285.741,594.128,NaN,7.502,322.982
65+,10,0.098716,Hue-7 with Wave-1,,1,0,55.21606057317763,0.0734621078789206,high_school,3,male,781,1,1.1,1.9,1,5c1ffe5295f978000173df84,6989,0,4,75,15,1,fieldSmooth,3,807.133,137.083,216.234,279.066,78.153,NaN,3.929,213.984
65+,10,0.098716,Hue-7 with Wave-1,,1,0,55.21606057317763,0.1035780394745873,high_school,3,male,576,1,1.1,1.9,1,5c1ffe5295f978000173df84,5747,0,5,75,16,2,fieldSmooth,3,807.133,137.083,216.234,279.066,78.153,NaN,3.929,213.984
65+,11,0.098716,Hue-5 with Wave-7,,1,0,6.338866799913041,0.0809569893938055,high_school,3,male,785,1,1.1,1.9,1,5c1ffe5295f978000173df84,3068,0,2,75,17,1,fieldSmooth,3,616.923,181.228,316.569,212.954,515.951,NaN,3.091,277.278
65+,11,0.098716,Hue-5 with Wave-7,,1,0,6.338866799913041,0.0709063370484618,high_school,3,male,648,1,1.1,1.9,1,5c1ffe5295f978000173df84,7025,0,5,75,18,2,fieldSmooth,3,616.923,181.228,316.569,212.954,515.951,NaN,3.091,277.278
65+,12,0.098716,Hue-3 with Wave-3,,1,0,51.19148717168969,0.0809492265471935,high_school,3,male,899,1,1.1,1.9,1,5c1ffe5295f978000173df84,7855,0,5,75,19,1,fieldSmooth,3,205.359,132.928,244.836,117.302,217.147,NaN,3.158,183.595
65+,12,0.098716,Hue-3 with Wave-3,,1,0,51.19148717168969,0.1457775649491345,high_school,3,male,622,1,1.1,1.9,1,5c1ffe5295f978000173df84,4070,0,5,75,20,2,fieldSmooth,3,205.359,132.928,244.836,117.302,217.147,NaN,3.158,183.595
65+,13,0.098716,Hue-3 with Wave-7,,1,0,51.19148717168969,0.0799386163888486,high_school,3,male,902,1,1.1,1.9,1,5c1ffe5295f978000173df84,3258,0,5,75,21,1,fieldSmooth,3,356.177,156.908,274.543,137.950,420.006,NaN,4.016,378.320
65+,13,0.098716,Hue-3 with Wave-7,,1,0,51.19148717168969,0.0641984089324869,high_school,3,male,654,1,1.1,1.9,1,5c1ffe5295f978000173df84,4111,0,2,75,22,2,fieldSmooth,3,356.177,156.908,274.543,137.950,420.006,NaN,4.016,378.320
65+,15,0.098716,Hue-7 with Wave-7,,1,0,55.21606057317763,0.0460718026638373,high_school,3,male,742,2,1.1,1.9,1,5c1ffe5295f978000173df84,10528,1,5,75,25,1,fieldSmooth,3,1398.197,197.542,324.033,284.680,509.528,NaN,5.116,334.387
65+,15,0.098716,Hue-7 with Wave-7,,1,0,55.21606057317763,0.0702023129522653,high_school,3,male,617,1,1.1,1.9,1,5c1ffe5295f978000173df84,3019,0,3,75,26,2,fieldSmooth,3,1398.197,197.542,324.033,284.680,509.528,NaN,5.116,334.387
65+,17,0.098716,Hue-5 with Wave-9,,1,0,6.338866799913041,0.0951841752514406,high_school,3,male,869,1,1.1,1.9,1,5c1ffe5295f978000173df84,3017,0,2,75,29,1,fieldSmooth,3,750.869,189.984,330.177,212.058,657.474,NaN,3.149,340.047
65+,17,0.098716,Hue-5 with Wave-9,,1,0,6.338866799913041,0.0653458760876962,high_school,3,male,664,2,1.1,1.9,1,5c1ffe5295f978000173df84,6998,1,3,75,30,2,fieldSmooth,3,750.869,189.984,330.177,212.058,657.474,NaN,3.149,340.047
65+,20,0.098716,Hue-7 with Wave-4,,1,0,55.21606057317763,0.0605813502454164,high_school,3,male,833,1,1.1,1.9,1,5c1ffe5295f978000173df84,8536,0,5,75,35,1,fieldSmooth,3,666.908,178.215,287.889,296.072,301.283,NaN,5.227,234.167
65+,20,0.098716,Hue-7 with Wave-4,,1,0,55.21606057317763,0.0416926660569876,high_school,3,male,616,2,1.1,1.9,1,5c1ffe5295f978000173df84,7650,1,1,75,36,2,fieldSmooth,3,666.908,178.215,287.889,296.072,301.283,NaN,5.227,234.167
65+,21,0.098716,Hue-5 with Wave-1,,1,0,6.338866799913041,0.0997791384375824,high_school,3,male,760,2,1.1,1.9,1,5c1ffe5295f978000173df84,5418,1,2,75,37,1,fieldSmooth,3,450.000,106.153,189.840,205.867,80.448,NaN,1.922,114.023
65+,21,0.098716,Hue-5 with Wave-1,,0,0,6.338866799913041,0.0719866621245214,high_school,3,male,631,0,1.1,1.9,1,5c1ffe5295f978000173df84,8778,-1,2,75,38,2,fieldSmooth,3,450.000,106.153,189.840,205.867,80.448,NaN,1.922,114.023
65+,22,0.098716,Hue-3 with Wave-8,,1,0,51.19148717168969,0.0599321844098721,high_school,3,male,850,2,1.1,1.9,1,5c1ffe5295f978000173df84,3480,1,1,75,39,1,fieldSmooth,3,535.794,149.327,279.771,115.289,467.556,NaN,6.244,376.100
65+,22,0.098716,Hue-3 with Wave-8,,1,0,51.19148717168969,0.1181877887302405,high_school,3,male,599,2,1.1,1.9,1,5c1ffe5295f978000173df84,3144,1,1,75,40,2,fieldSmooth,3,535.794,149.327,279.771,115.289,467.556,NaN,6.244,376.100
65+,23,0.098716,Hue-3 with Wave-9,,1,0,51.19148717168969,0.0904177554570246,high_school,3,male,814,1,1.1,1.9,1,5c1ffe5295f978000173df84,4452,0,4,75,41,1,fieldSmooth,3,308.589,161.190,286.239,134.699,512.931,NaN,3.295,476.254
65+,23,0.098716,Hue-3 with Wave-9,,1,0,51.19148717168969,0.0889658045428346,high_school,3,male,633,1,1.1,1.9,1,5c1ffe5295f978000173df84,4706,0,2,75,42,2,fieldSmooth,3,308.589,161.190,286.239,134.699,512.931,NaN,3.295,476.254
65+,25,0.098716,Hue-3 with Wave-2,,1,0,51.19148717168969,0.1002097152399655,high_school,3,male,780,1,1.1,1.9,1,5c1ffe5295f978000173df84,6240,0,1,75,45,1,fieldSmooth,3,205.377,114.936,214.506,97.794,147.665,NaN,2.288,180.704
65+,25,0.098716,Hue-3 with Wave-2,,1,0,51.19148717168969,0.0934224670957024,high_school,3,male,601,2,1.1,1.9,1,5c1ffe5295f978000173df84,9341,1,4,75,46,2,fieldSmooth,3,205.377,114.936,214.506,97.794,147.665,NaN,2.288,180.704
65+,26,0.098716,Hue-7 with Wave-0,,1,0,55.21606057317763,0.0631178651219314,high_school,3,male,783,1,1.1,1.9,1,5c1ffe5295f978000173df84,8925,0,2,75,47,1,fieldSmooth,3,885.476,135.098,173.278,278.089,35.474,NaN,3.968,123.726
65+,26,0.098716,Hue-7 with Wave-0,,1,0,55.21606057317763,0.1154821838119612,high_school,3,male,669,1,1.1,1.9,1,5c1ffe5295f978000173df84,2114,0,3,75,48,2,fieldSmooth,3,885.476,135.098,173.278,278.089,35.474,NaN,3.968,123.726
65+,27,0.098716,Hue-5 with Wave-6,,1,0,6.338866799913041,0.0842250305806992,high_school,3,male,788,1,1.1,1.9,1,5c1ffe5295f978000173df84,12728,0,2,75,49,1,fieldSmooth,3,446.658,171.254,297.325,227.267,441.538,NaN,3.258,178.270
65+,27,0.098716,Hue-5 with Wave-6,,1,0,6.338866799913041,0.0467336621671589,high_school,3,male,666,1,1.1,1.9,1,5c1ffe5295f978000173df84,5583,0,6,75,50,2,fieldSmooth,3,446.658,171.254,297.325,227.267,441.538,NaN,3.258,178.270
65+,29,0.098716,Hue-5 with Wave-0,,1,0,6.338866799913041,0.0844247652651562,high_school,3,male,822,1,1.1,1.9,1,5c1ffe5295f978000173df84,8792,0,4,75,53,1,fieldSmooth,3,347.926,85.831,114.115,193.291,20.296,NaN,2.236,75.453
65+,29,0.098716,Hue-5 with Wave-0,,1,0,6.338866799913041,0.0987007567030328,high_school,3,male,612,1,1.1,1.9,1,5c1ffe5295f978000173df84,4903,0,1,75,54,2,fieldSmooth,3,347.926,85.831,114.115,193.291,20.296,NaN,2.236,75.453
65+,31,0.098716,Hue-5 with Wave-8,,1,0,6.338866799913041,0.0843657627916273,high_school,3,male,727,1,1.1,1.9,1,5c1ffe5295f978000173df84,4027,0,2,75,57,1,fieldSmooth,3,996.204,171.604,312.243,206.526,602.400,NaN,7.046,166.495
65+,31,0.098716,Hue-5 with Wave-8,,1,0,6.338866799913041,0.1187879001623623,high_school,3,male,634,1,1.1,1.9,1,5c1ffe5295f978000173df84,2825,0,1,75,58,2,fieldSmooth,3,996.204,171.604,312.243,206.526,602.400,NaN,7.046,166.495
65+,32,0.098716,Hue-3 with Wave-1,,1,0,51.19148717168969,0.0628297927417523,high_school,3,male,855,2,1.1,1.9,1,5c1ffe5295f978000173df84,8309,1,4,75,59,1,fieldSmooth,3,67.485,103.827,186.015,142.478,77.417,NaN,1.246,122.612
65+,32,0.098716,Hue-3 with Wave-1,,1,0,51.19148717168969,0.0527230462385961,high_school,3,male,681,2,1.1,1.9,1,5c1ffe5295f978000173df84,12223,1,6,75,60,2,fieldSmooth,3,67.485,103.827,186.015,142.478,77.417,NaN,1.246,122.612
65+,33,0.098716,Hue-3 with Wave-4,,1,0,51.19148717168969,0.1077302580439266,high_school,3,male,859,1,1.1,1.9,1,5c1ffe5295f978000173df84,8321,0,2,75,61,1,fieldSmooth,3,319.664,147.352,262.959,135.643,279.727,NaN,4.606,239.823
65+,33,0.098716,Hue-3 with Wave-4,,1,0,51.19148717168969,0.0691674121556384,high_school,3,male,668,1,1.1,1.9,1,5c1ffe5295f978000173df84,3081,0,3,75,62,2,fieldSmooth,3,319.664,147.352,262.959,135.643,279.727,NaN,4.606,239.823
65+,35,0.098716,Hue-5 with Wave-5,,1,0,6.338866799913041,0.0643746447028361,high_school,3,male,848,2,1.1,1.9,1,5c1ffe5295f978000173df84,12290,1,6,75,63,1,fieldSmooth,3,587.416,168.789,295.662,223.554,374.563,NaN,3.570,179.123
65+,35,0.098716,Hue-5 with Wave-5,,1,0,6.338866799913041,0.0879937063401037,high_school,3,male,624,2,1.1,1.9,1,5c1ffe5295f978000173df84,8387,1,3,75,64,2,fieldSmooth,3,587.416,168.789,295.662,223.554,374.563,NaN,3.570,179.123
65+,36,0.098716,Hue-5 with Wave-4,,1,0,6.338866799913041,0.0483314134964165,high_school,3,male,850,2,1.1,1.9,1,5c1ffe5295f978000173df84,9843,1,2,75,65,1,fieldSmooth,3,501.474,159.432,284.105,207.417,307.889,NaN,4.388,199.265
65+,36,0.098716,Hue-5 with Wave-4,,1,0,6.338866799913041,0.070082544947277,high_school,3,male,630,1,1.1,1.9,1,5c1ffe5295f978000173df84,12504,0,4,75,66,2,fieldSmooth,3,501.474,159.432,284.105,207.417,307.889,NaN,4.388,199.265
65+,37,0.098716,Hue-3 with Wave-5,,1,0,51.19148717168969,0.0892996222719349,high_school,3,male,843,1,1.1,1.9,1,5c1ffe5295f978000173df84,7677,0,4,75,67,1,fieldSmooth,3,123.529,146.939,262.363,124.419,328.046,NaN,3.492,296.869
65+,37,0.098716,Hue-3 with Wave-5,,1,0,51.19148717168969,0.061930957631356,high_school,3,male,658,1,1.1,1.9,1,5c1ffe5295f978000173df84,5229,0,2,75,68,2,fieldSmooth,3,123.529,146.939,262.363,124.419,328.046,NaN,3.492,296.869
65+,39,0.098716,Hue-7 with Wave-9,,1,0,55.21606057317763,0.1067053063292222,high_school,3,male,860,2,1.1,1.9,1,5c1ffe5295f978000173df84,8804,1,4,75,71,1,fieldSmooth,3,1480.065,210.478,337.064,299.333,643.006,NaN,5.313,372.923
65+,39,0.098716,Hue-7 with Wave-9,,1,0,55.21606057317763,0.0562930200590377,high_school,3,male,662,1,1.1,1.9,1,5c1ffe5295f978000173df84,4617,0,6,75,72,2,fieldSmooth,3,1480.065,210.478,337.064,299.333,643.006,NaN,5.313,372.923
65+,40,0.098716,Hue-7 with Wave-6,,1,0,55.21606057317763,0.0548013444321342,high_school,3,male,889,1,1.1,1.9,1,5c1ffe5295f978000173df84,5822,0,3,75,73,1,fieldSmooth,3,1093.861,188.836,306.448,284.577,424.808,NaN,4.849,334.513
65+,40,0.098716,Hue-7 with Wave-6,,1,0,55.21606057317763,0.0687680756112704,high_school,3,male,740,1,1.1,1.9,1,5c1ffe5295f978000173df84,6274,0,3,75,74,2,fieldSmooth,3,1093.861,188.836,306.448,284.577,424.808,NaN,4.849,334.513
65+,41,0.098716,Hue-3 with Wave-0,,1,0,51.19148717168969,0.0672802089664143,high_school,3,male,617,1,1.1,1.9,1,5c1ffe5295f978000173df84,4184,0,4,75,75,1,fieldSmooth,3,148.467,69.494,95.114,101.633,24.514,NaN,1.095,62.963
65+,41,0.098716,Hue-3 with Wave-0,,0,0,51.19148717168969,0.0786464444634995,high_school,3,male,579,0,1.1,1.9,1,5c1ffe5295f978000173df84,8693,-1,5,75,76,2,fieldSmooth,3,148.467,69.494,95.114,101.633,24.514,NaN,1.095,62.963
65+,42,0.098716,Hue-3 with Wave-6,,1,0,51.19148717168969,0.0661919574992745,high_school,3,male,806,2,1.1,1.9,1,5c1ffe5295f978000173df84,7031,1,3,75,77,1,fieldSmooth,3,409.339,157.556,281.828,123.735,404.102,NaN,4.125,368.088
65+,42,0.098716,Hue-3 with Wave-6,,1,0,51.19148717168969,0.0463159949091953,high_school,3,male,621,1,1.1,1.9,1,5c1ffe5295f978000173df84,10094,0,2,75,78,2,fieldSmooth,3,409.339,157.556,281.828,123.735,404.102,NaN,4.125,368.088
,2,0.098716,Hue-5 with Wave-2,,1,0,58.04611872476544,0.0880675989568411,,2,,777,1,1.1,1.9,1,63e5872c841f61b1309e1d18,11944,0,5,78,3,1,fieldSmooth,4,425.553,135.011,238.192,212.069,152.904,NaN,3.297,159.800
,2,0.098716,Hue-5 with Wave-2,,1,0,58.04611872476544,0.0402041006721991,,2,,648,2,1.1,1.9,1,63e5872c841f61b1309e1d18,15717,1,4,78,4,2,fieldSmooth,4,425.553,135.011,238.192,212.069,152.904,NaN,3.297,159.800
,3,0.098716,Hue-5 with Wave-8,,1,0,58.04611872476544,0.0819497587057588,,2,,787,2,1.1,1.9,1,63e5872c841f61b1309e1d18,12149,1,5,78,5,1,fieldSmooth,4,1183.132,177.842,318.570,211.949,574.445,NaN,7.217,269.321
,3,0.098716,Hue-5 with Wave-8,,1,0,58.04611872476544,0.0286365184885878,,2,,650,1,1.1,1.9,1,63e5872c841f61b1309e1d18,38026,0,2,78,6,2,fieldSmooth,4,1183.132,177.842,318.570,211.949,574.445,NaN,7.217,269.321
,4,0.098716,Hue-7 with Wave-5,,1,0,46.23697306705098,0.0672206640808119,,2,,655,1,1.1,1.9,1,63e5872c841f61b1309e1d18,5510,0,1,78,7,1,fieldSmooth,4,1026.350,187.724,302.267,294.441,357.765,NaN,5.276,326.825
,4,0.098716,Hue-7 with Wave-5,,1,0,46.23697306705098,0.057683671230256,,2,,635,1,1.1,1.9,1,63e5872c841f61b1309e1d18,6519,0,6,78,8,2,fieldSmooth,4,1026.350,187.724,302.267,294.441,357.765,NaN,5.276,326.825
,5,0.098716,Hue-5 with Wave-1,,1,0,58.04611872476544,0.1120554535321714,,2,,670,2,1.1,1.9,1,63e5872c841f61b1309e1d18,9382,1,5,78,9,1,fieldSmooth,4,49.361,114.634,199.953,201.547,79.233,NaN,1.762,172.941
,5,0.098716,Hue-5 with Wave-1,,1,0,58.04611872476544,0.0970991307540736,,2,,583,2,1.1,1.9,1,63e5872c841f61b1309e1d18,13919,1,4,78,10,2,fieldSmooth,4,49.361,114.634,199.953,201.547,79.233,NaN,1.762,172.941
,6,0.098716,Hue-3 with Wave-8,,1,0,2.533162746773119,0.0867987646566191,,2,,797,1,1.1,1.9,1,63e5872c841f61b1309e1d18,12318,0,4,78,11,1,fieldSmooth,4,469.064,155.272,293.055,118.715,556.471,NaN,6.517,259.593
,6,0.098716,Hue-3 with Wave-8,,1,0,2.533162746773119,0.1059525209334199,,2,,597,1,1.1,1.9,1,63e5872c841f61b1309e1d18,27175,0,5,78,12,2,fieldSmooth,4,469.064,155.272,293.055,118.715,556.471,NaN,6.517,259.593
,9,0.098716,Hue-3 with Wave-9,,1,0,2.533162746773119,0.0673679373430192,,2,,700,1,1.1,1.9,1,63e5872c841f61b1309e1d18,3173,0,5,78,17,1,fieldSmooth,4,270.262,145.971,269.758,128.657,544.660,NaN,2.653,353.004
,9,0.098716,Hue-3 with Wave-9,,1,0,2.533162746773119,0.1080275082093421,,2,,589,1,1.1,1.9,1,63e5872c841f61b1309e1d18,12761,0,4,78,18,2,fieldSmooth,4,270.262,145.971,269.758,128.657,544.660,NaN,2.653,353.004
,10,0.098716,Hue-3 with Wave-1,,1,0,2.533162746773119,0.0840871588350259,,2,,634,2,1.1,1.9,1,63e5872c841f61b1309e1d18,5587,1,4,78,19,1,fieldSmooth,4,183.928,80.122,165.823,103.503,79.851,NaN,0.356,45.640
,10,0.098716,Hue-3 with Wave-1,,1,0,2.533162746773119,0.1138596270674343,,2,,565,2,1.1,1.9,1,63e5872c841f61b1309e1d18,5113,1,4,78,20,2,fieldSmooth,4,183.928,80.122,165.823,103.503,79.851,NaN,0.356,45.640
,11,0.098716,Hue-5 with Wave-7,,1,0,58.04611872476544,0.0929750549648809,,2,,708,1,1.1,1.9,1,63e5872c841f61b1309e1d18,28253,0,2,78,21,1,fieldSmooth,4,618.943,184.083,310.531,223.507,491.349,NaN,4.110,304.518
,11,0.098716,Hue-5 with Wave-7,,1,0,58.04611872476544,0.1533214047310082,,2,,581,1,1.1,1.9,1,63e5872c841f61b1309e1d18,4841,0,4,78,22,2,fieldSmooth,4,618.943,184.083,310.531,223.507,491.349,NaN,4.110,304.518
,12,0.098716,Hue-3 with Wave-4,,1,0,2.533162746773119,0.0884676610268071,,2,,757,2,1.1,1.9,1,63e5872c841f61b1309e1d18,29961,1,6,78,23,1,fieldSmooth,4,392.239,135.449,264.887,120.333,302.778,NaN,5.410,127.346
,12,0.098716,Hue-3 with Wave-4,,1,0,2.533162746773119,0.0561239609834198,,2,,567,2,1.1,1.9,1,63e5872c841f61b1309e1d18,44705,1,3,78,24,2,fieldSmooth,4,392.239,135.449,264.887,120.333,302.778,NaN,5.410,127.346
,13,0.098716,Hue-3 with Wave-3,,1,0,2.533162746773119,0.0693247179363021,,2,,707,1,1.1,1.9,1,63e5872c841f61b1309e1d18,18766,0,3,78,25,1,fieldSmooth,4,153.594,124.316,237.151,134.009,220.161,NaN,1.620,113.553
,13,0.098716,Hue-3 with Wave-3,,1,0,2.533162746773119,0.0757349817538929,,2,,596,1,1.1,1.9,1,63e5872c841f61b1309e1d18,11497,0,2,78,26,2,fieldSmooth,4,153.594,124.316,237.151,134.009,220.161,NaN,1.620,113.553
,14,0.098716,Hue-3 with Wave-7,,1,0,2.533162746773119,0.0635194181873269,,2,,810,1,1.1,1.9,1,63e5872c841f61b1309e1d18,8395,0,2,78,27,1,fieldSmooth,4,324.626,153.293,290.497,114.420,505.488,NaN,2.721,285.701
,14,0.098716,Hue-3 with Wave-7,,1,0,2.533162746773119,0.0956536077197476,,2,,657,1,1.1,1.9,1,63e5872c841f61b1309e1d18,21506,0,1,78,28,2,fieldSmooth,4,324.626,153.293,290.497,114.420,505.488,NaN,2.721,285.701
,16,0.098716,Hue-5 with Wave-6,,1,0,58.04611872476544,0.0974445645064513,,2,,760,2,1.1,1.9,1,63e5872c841f61b1309e1d18,11305,1,2,78,29,1,fieldSmooth,4,657.262,173.081,296.960,216.476,430.733,NaN,5.051,229.824
,16,0.098716,Hue-5 with Wave-6,,1,0,58.04611872476544,0.081634136990396,,2,,616,1,1.1,1.9,1,63e5872c841f61b1309e1d18,5110,0,1,78,30,2,fieldSmooth,4,657.262,173.081,296.960,216.476,430.733,NaN,5.051,229.824
,18,0.098716,Hue-5 with Wave-4,,1,0,58.04611872476544,0.0939667545991772,,2,,747,2,1.1,1.9,1,63e5872c841f61b1309e1d18,4232,1,3,78,33,1,fieldSmooth,4,657.011,158.677,278.621,203.397,303.038,NaN,5.740,222.614
,18,0.098716,Hue-5 with Wave-4,,1,0,58.04611872476544,0.0725321636000042,,2,,629,1,1.1,1.9,1,63e5872c841f61b1309e1d18,35238,0,5,78,34,2,fieldSmooth,4,657.011,158.677,278.621,203.397,303.038,NaN,5.740,222.614
,20,0.098716,Hue-7 with Wave-9,,1,0,46.23697306705098,0.1279461992734837,,2,,664,1,1.1,1.9,1,63e5872c841f61b1309e1d18,6084,0,6,78,35,1,fieldSmooth,4,1544.350,211.161,337.821,298.068,647.895,NaN,5.567,388.765
,20,0.098716,Hue-7 with Wave-9,,1,0,46.23697306705098,0.0609556140572373,,2,,645,1,1.1,1.9,1,63e5872c841f61b1309e1d18,14624,0,3,78,36,2,fieldSmooth,4,1544.350,211.161,337.821,298.068,647.895,NaN,5.567,388.765
,22,0.098716,Hue-5 with Wave-5,,1,0,58.04611872476544,0.1067514298330336,,2,,778,1,1.1,1.9,1,63e5872c841f61b1309e1d18,3647,0,3,78,39,1,fieldSmooth,4,667.198,164.668,291.643,203.859,368.642,NaN,4.292,246.640
,22,0.098716,Hue-5 with Wave-5,,1,0,58.04611872476544,0.0652910510960119,,2,,597,1,1.1,1.9,1,63e5872c841f61b1309e1d18,14790,0,4,78,40,2,fieldSmooth,4,667.198,164.668,291.643,203.859,368.642,NaN,4.292,246.640
,23,0.098716,Hue-5 with Wave-0,,1,0,58.04611872476544,0.0756733322871745,,2,,747,2,1.1,1.9,1,63e5872c841f61b1309e1d18,15419,1,1,78,41,1,fieldSmooth,4,414.445,94.321,127.048,191.850,27.033,NaN,2.551,95.982
,23,0.098716,Hue-5 with Wave-0,,1,0,58.04611872476544,0.113674829050097,,2,,574,1,1.1,1.9,1,63e5872c841f61b1309e1d18,11510,0,5,78,42,2,fieldSmooth,4,414.445,94.321,127.048,191.850,27.033,NaN,2.551,95.982
,24,0.098716,Hue-7 with Wave-6,,1,0,46.23697306705098,0.1073436138294541,,2,,585,1,1.1,1.9,1,63e5872c841f61b1309e1d18,10624,0,6,78,43,1,fieldSmooth,4,923.940,186.277,301.778,284.428,414.589,NaN,4.670,331.715
,24,0.098716,Hue-7 with Wave-6,,1,0,46.23697306705098,0.0806470729073417,,2,,668,1,1.1,1.9,1,63e5872c841f61b1309e1d18,5773,0,2,78,44,2,fieldSmooth,4,923.940,186.277,301.778,284.428,414.589,NaN,4.670,331.715
,25,0.098716,Hue-3 with Wave-5,,1,0,2.533162746773119,0.0933360769729996,,2,,735,1,1.1,1.9,1,63e5872c841f61b1309e1d18,6743,0,3,78,45,1,fieldSmooth,4,196.316,142.474,268.124,139.335,359.845,NaN,2.254,193.729
,25,0.098716,Hue-3 with Wave-5,,1,0,2.533162746773119,0.0566412668784905,,2,,640,2,1.1,1.9,1,63e5872c841f61b1309e1d18,6510,1,6,78,46,2,fieldSmooth,4,196.316,142.474,268.124,139.335,359.845,NaN,2.254,193.729
,26,0.098716,Hue-3 with Wave-6,,1,0,2.533162746773119,0.0785870624877941,,2,,773,1,1.1,1.9,1,63e5872c841f61b1309e1d18,28885,0,3,78,47,1,fieldSmooth,4,490.871,152.644,288.423,123.217,445.154,NaN,3.152,250.050
,26,0.098716,Hue-3 with Wave-6,,1,0,2.533162746773119,0.0526368694477773,,2,,616,1,1.1,1.9,1,63e5872c841f61b1309e1d18,9062,0,6,78,48,2,fieldSmooth,4,490.871,152.644,288.423,123.217,445.154,NaN,3.152,250.050
,27,0.098716,Hue-5 with Wave-9,,1,0,58.04611872476544,0.0419412807348664,,2,,818,1,1.1,1.9,1,63e5872c841f61b1309e1d18,13832,0,2,78,49,1,fieldSmooth,4,967.950,189.967,324.209,214.357,631.277,NaN,4.115,418.793
,27,0.098716,Hue-5 with Wave-9,,1,0,58.04611872476544,0.0664958406367114,,2,,669,2,1.1,1.9,1,63e5872c841f61b1309e1d18,9188,1,6,78,50,2,fieldSmooth,4,967.950,189.967,324.209,214.357,631.277,NaN,4.115,418.793
,28,0.098716,Hue-3 with Wave-0,,1,0,2.533162746773119,0.0685070337402601,,2,,625,1,1.1,1.9,1,63e5872c841f61b1309e1d18,9555,0,2,78,51,1,fieldSmooth,4,55.072,38.428,55.793,87.492,13.694,NaN,0.718,32.080
,28,0.098716,Hue-3 with Wave-0,,1,0,2.533162746773119,0.0667464118570168,,2,,629,1,1.1,1.9,1,63e5872c841f61b1309e1d18,23331,0,1,78,52,2,fieldSmooth,4,55.072,38.428,55.793,87.492,13.694,NaN,0.718,32.080
,29,0.098716,Hue-7 with Wave-8,,1,0,46.23697306705098,0.0975876453432677,,2,,767,1,1.1,1.9,1,63e5872c841f61b1309e1d18,8906,0,6,78,53,1,fieldSmooth,4,1239.638,206.071,335.080,288.868,581.497,NaN,7.304,352.011
,29,0.098716,Hue-7 with Wave-8,,1,0,46.23697306705098,0.1489420422019697,,2,,581,1,1.1,1.9,1,63e5872c841f61b1309e1d18,17004,0,2,78,54,2,fieldSmooth,4,1239.638,206.071,335.080,288.868,581.497,NaN,7.304,352.011
,31,0.098716,Hue-5 with Wave-3,,1,0,58.04611872476544,0.0768907249968546,,2,,746,2,1.1,1.9,1,63e5872c841f61b1309e1d18,8595,1,2,78,57,1,fieldSmooth,4,334.019,148.977,255.583,208.826,218.944,NaN,2.996,237.305
,31,0.098716,Hue-5 with Wave-3,,1,0,58.04611872476544,0.1105881657145567,,2,,647,1,1.1,1.9,1,63e5872c841f61b1309e1d18,15953,0,1,78,58,2,fieldSmooth,4,334.019,148.977,255.583,208.826,218.944,NaN,2.996,237.305
,33,0.098716,Hue-7 with Wave-4,,1,0,46.23697306705098,0.0835098375121036,,2,,723,2,1.1,1.9,1,63e5872c841f61b1309e1d18,37919,1,3,78,61,1,fieldSmooth,4,748.667,178.546,289.020,293.614,304.687,NaN,5.036,210.087
,33,0.098716,Hue-7 with Wave-4,,1,0,46.23697306705098,0.0883093949400121,,2,,619,1,1.1,1.9,1,63e5872c841f61b1309e1d18,3320,0,1,78,62,2,fieldSmooth,4,748.667,178.546,289.020,293.614,304.687,NaN,5.036,210.087
,34,0.098716,Hue-3 with Wave-2,,1,0,2.533162746773119,0.1206705780842759,,2,,715,2,1.1,1.9,1,63e5872c841f61b1309e1d18,5338,1,2,78,63,1,fieldSmooth,4,191.755,110.853,217.449,121.547,153.656,NaN,2.169,73.745
,34,0.098716,Hue-3 with Wave-2,,1,0,2.533162746773119,0.0596413945170824,,2,,618,1,1.1,1.9,1,63e5872c841f61b1309e1d18,45574,0,2,78,64,2,fieldSmooth,4,191.755,110.853,217.449,121.547,153.656,NaN,2.169,73.745
,36,0.098716,Hue-7 with Wave-2,,1,0,46.23697306705098,0.0502054204336147,,2,,635,2,1.1,1.9,1,63e5872c841f61b1309e1d18,33869,1,5,78,65,1,fieldSmooth,4,621.140,159.511,256.771,284.432,159.147,NaN,3.653,170.125
,36,0.098716,Hue-7 with Wave-2,,1,0,46.23697306705098,0.0950905913977543,,2,,616,2,1.1,1.9,1,63e5872c841f61b1309e1d18,3731,1,1,78,66,2,fieldSmooth,4,621.140,159.511,256.771,284.432,159.147,NaN,3.653,170.125
,37,0.098716,Hue-7 with Wave-3,,1,0,46.23697306705098,0.0543365526361323,,2,,756,2,1.1,1.9,1,63e5872c841f61b1309e1d18,10385,1,3,78,67,1,fieldSmooth,4,776.421,163.341,265.946,282.458,217.845,NaN,4.430,146.557
,37,0.098716,Hue-7 with Wave-3,,1,0,46.23697306705098,0.1332461575371226,,2,,575,1,1.1,1.9,1,63e5872c841f61b1309e1d18,39923,0,5,78,68,2,fieldSmooth,4,776.421,163.341,265.946,282.458,217.845,NaN,4.430,146.557
,38,0.098716,Hue-7 with Wave-1,,1,0,46.23697306705098,0.0691229312900422,,2,,768,1,1.1,1.9,1,63e5872c841f61b1309e1d18,12518,0,6,78,69,1,fieldSmooth,4,681.808,134.680,205.784,277.773,76.538,NaN,3.538,146.398
,38,0.098716,Hue-7 with Wave-1,,1,0,46.23697306705098,0.0811541850244293,,2,,604,1,1.1,1.9,1,63e5872c841f61b1309e1d18,10072,0,3,78,70,2,fieldSmooth,4,681.808,134.680,205.784,277.773,76.538,NaN,3.538,146.398
,39,0.098716,Hue-7 with Wave-0,,1,0,46.23697306705098,0.0437874373218254,,2,,782,1,1.1,1.9,1,63e5872c841f61b1309e1d18,11660,0,6,78,71,1,fieldSmooth,4,803.054,136.902,176.738,278.502,39.865,NaN,3.949,131.021
,39,0.098716,Hue-7 with Wave-0,,1,0,46.23697306705098,0.055130071563214,,2,,616,1,1.1,1.9,1,63e5872c841f61b1309e1d18,6028,0,1,78,72,2,fieldSmooth,4,803.054,136.902,176.738,278.502,39.865,NaN,3.949,131.021
,41,0.098716,Hue-7 with Wave-7,,1,0,46.23697306705098,0.0878962888175405,,2,,724,1,1.1,1.9,1,63e5872c841f61b1309e1d18,4821,0,1,78,75,1,fieldSmooth,4,1011.067,200.876,323.045,287.842,497.641,NaN,5.203,361.995
,41,0.098716,Hue-7 with Wave-7,,1,0,46.23697306705098,0.0518414611243024,,2,,619,1,1.1,1.9,1,63e5872c841f61b1309e1d18,20665,0,1,78,76,2,fieldSmooth,4,1011.067,200.876,323.045,287.842,497.641,NaN,5.203,361.995
,1,0.098716,Hue-3 with Wave-3,,1,0,44.73369780893667,0.0370279443626846,,2,,905,2,1.1,1.9,1,646774e0f86825ab62c37581,103549,1,3,46,1,1,fieldSmooth,5,354.625,132.965,246.840,116.205,222.589,NaN,2.862,185.941
,1,0.098716,Hue-3 with Wave-3,,1,0,44.73369780893667,0.0700334951783791,,2,,945,2,1.1,1.9,1,646774e0f86825ab62c37581,46823,1,5,46,2,2,fieldSmooth,5,354.625,132.965,246.840,116.205,222.589,NaN,2.862,185.941
,2,0.098716,Hue-7 with Wave-0,,1,0,56.88150269999558,0.0714429598064921,,2,,900,1,1.1,1.9,1,646774e0f86825ab62c37581,11332,0,1,46,3,1,fieldSmooth,5,963.085,134.725,172.646,278.067,35.390,NaN,3.987,121.464
,2,0.098716,Hue-7 with Wave-0,,1,0,56.88150269999558,0.0871988919443761,,2,,866,1,1.1,1.9,1,646774e0f86825ab62c37581,6645,0,4,46,4,2,fieldSmooth,5,963.085,134.725,172.646,278.067,35.390,NaN,3.987,121.464
,3,0.098716,Hue-7 with Wave-2,,1,0,56.88150269999558,0.0912226020892301,,2,,1095,2,1.1,1.9,1,646774e0f86825ab62c37581,8369,1,3,46,5,1,fieldSmooth,5,628.240,158.993,257.908,284.268,158.913,NaN,3.977,182.128
,3,0.098716,Hue-7 with Wave-2,,1,0,56.88150269999558,0.091172617187633,,2,,811,2,1.1,1.9,1,646774e0f86825ab62c37581,5453,1,2,46,6,2,fieldSmooth,5,628.240,158.993,257.908,284.268,158.913,NaN,3.977,182.128
,4,0.098716,Hue-5 with Wave-7,,1,0,27.949694569807928,0.0602204535721998,,2,,1276,2,1.1,1.9,1,646774e0f86825ab62c37581,12525,1,6,46,7,1,fieldSmooth,5,580.545,181.631,316.115,211.827,516.610,NaN,3.671,322.464
,4,0.098716,Hue-5 with Wave-7,,1,0,27.949694569807928,0.1165621393114343,,2,,753,1,1.1,1.9,1,646774e0f86825ab62c37581,7182,0,5,46,8,2,fieldSmooth,5,580.545,181.631,316.115,211.827,516.610,NaN,3.671,322.464
,5,0.098716,Hue-3 with Wave-1,,1,0,44.73369780893667,0.0705380922215574,,2,,1039,2,1.1,1.9,1,646774e0f86825ab62c37581,9199,1,3,46,9,1,fieldSmooth,5,69.523,101.173,183.255,136.300,77.954,NaN,1.099,110.528
,5,0.098716,Hue-3 with Wave-1,,1,0,44.73369780893667,0.1121151144666191,,2,,888,2,1.1,1.9,1,646774e0f86825ab62c37581,5552,1,2,46,10,2,fieldSmooth,5,69.523,101.173,183.255,136.300,77.954,NaN,1.099,110.528
,7,0.098716,Hue-7 with Wave-5,,1,0,56.88150269999558,0.056247974548423,,2,,1019,2,1.1,1.9,1,646774e0f86825ab62c37581,8201,1,4,46,13,1,fieldSmooth,5,881.067,186.985,302.681,286.403,362.588,NaN,5.155,314.241
,7,0.098716,Hue-7 with Wave-5,,1,0,56.88150269999558,0.0716096256893073,,2,,963,1,1.1,1.9,1,646774e0f86825ab62c37581,8615,0,3,46,14,2,fieldSmooth,5,881.067,186.985,302.681,286.403,362.588,NaN,5.155,314.241
,8,0.098716,Hue-3 with Wave-8,,1,0,44.73369780893667,0.0776137965210659,,2,,999,2,1.1,1.9,1,646774e0f86825ab62c37581,17135,1,3,46,15,1,fieldSmooth,5,576.197,151.582,276.297,126.640,469.044,NaN,5.943,343.182
,8,0.098716,Hue-3 with Wave-8,,1,0,44.73369780893667,0.0611924044822246,,2,,862,1,1.1,1.9,1,646774e0f86825ab62c37581,4942,0,1,46,16,2,fieldSmooth,5,576.197,151.582,276.297,126.640,469.044,NaN,5.943,343.182
,9,0.098716,Hue-5 with Wave-6,,1,0,27.949694569807928,0.0346546941499937,,2,,1150,2,1.1,1.9,1,646774e0f86825ab62c37581,15357,1,2,46,17,1,fieldSmooth,5,613.252,169.077,292.845,214.165,433.088,NaN,3.753,247.587
,9,0.098716,Hue-5 with Wave-6,,1,0,27.949694569807928,0.093450502067983,,2,,935,1,1.1,1.9,1,646774e0f86825ab62c37581,5683,0,1,46,18,2,fieldSmooth,5,613.252,169.077,292.845,214.165,433.088,NaN,3.753,247.587
,10,0.098716,Hue-5 with Wave-0,,1,0,27.949694569807928,0.1016505415377305,,2,,940,1,1.1,1.9,1,646774e0f86825ab62c37581,12572,0,4,46,19,1,fieldSmooth,5,527.825,92.439,122.996,197.980,19.214,NaN,2.600,107.303
,10,0.098716,Hue-5 with Wave-0,,1,0,27.949694569807928,0.0727574011877378,,2,,844,1,1.1,1.9,1,646774e0f86825ab62c37581,14931,0,2,46,20,2,fieldSmooth,5,527.825,92.439,122.996,197.980,19.214,NaN,2.600,107.303
,11,0.098716,Hue-5 with Wave-2,,1,0,27.949694569807928,0.0811502680855765,,2,,1028,2,1.1,1.9,1,646774e0f86825ab62c37581,16402,1,3,46,21,1,fieldSmooth,5,499.785,128.287,227.800,202.750,157.026,NaN,2.780,73.953
,11,0.098716,Hue-5 with Wave-2,,1,0,27.949694569807928,0.0923325347333026,,2,,941,2,1.1,1.9,1,646774e0f86825ab62c37581,4643,1,2,46,22,2,fieldSmooth,5,499.785,128.287,227.800,202.750,157.026,NaN,2.780,73.953
,12,0.098716,Hue-7 with Wave-7,,1,0,56.88150269999558,0.10235811043931,,2,,1460,2,1.1,1.9,1,646774e0f86825ab62c37581,4115,1,2,46,23,1,fieldSmooth,5,1051.717,197.482,324.104,284.316,508.706,NaN,5.144,333.754
,12,0.098716,Hue-7 with Wave-7,,1,0,56.88150269999558,0.0955682408148146,,2,,1256,1,1.1,1.9,1,646774e0f86825ab62c37581,7437,0,5,46,24,2,fieldSmooth,5,1051.717,197.482,324.104,284.316,508.706,NaN,5.144,333.754
,14,0.098716,Hue-7 with Wave-4,,1,0,56.88150269999558,0.0469266951324289,,2,,2443,2,1.1,1.9,1,646774e0f86825ab62c37581,9107,1,3,46,27,1,fieldSmooth,5,696.538,178.637,288.255,296.759,299.219,NaN,5.495,241.797
,14,0.098716,Hue-7 with Wave-4,,1,0,56.88150269999558,0.0875044355754133,,2,,1271,2,1.1,1.9,1,646774e0f86825ab62c37581,21786,1,6,46,28,2,fieldSmooth,5,696.538,178.637,288.255,296.759,299.219,NaN,5.495,241.797
,15,0.098716,Hue-3 with Wave-4,,1,0,44.73369780893667,0.0654768313211732,,2,,2328,2,1.1,1.9,1,646774e0f86825ab62c37581,39914,1,3,46,29,1,fieldSmooth,5,317.544,147.798,264.419,133.031,286.724,NaN,5.064,237.936
,15,0.098716,Hue-3 with Wave-4,,1,0,44.73369780893667,0.0741351797499412,,2,,1372,1,1.1,1.9,1,646774e0f86825ab62c37581,31822,0,1,46,30,2,fieldSmooth,5,317.544,147.798,264.419,133.031,286.724,NaN,5.064,237.936
,17,0.098716,Hue-5 with Wave-3,,1,0,27.949694569807928,0.0561109430451305,,2,,1626,2,1.1,1.9,1,646774e0f86825ab62c37581,30381,1,1,46,33,1,fieldSmooth,5,434.496,149.720,261.395,215.342,227.252,NaN,3.032,171.850
,17,0.098716,Hue-5 with Wave-3,,1,0,27.949694569807928,0.0804554727423884,,2,,937,1,1.1,1.9,1,646774e0f86825ab62c37581,31276,0,1,46,34,2,fieldSmooth,5,434.496,149.720,261.395,215.342,227.252,NaN,3.032,171.850
,19,0.098716,Hue-7 with Wave-8,,0,0,56.88150269999558,0.1056035726192985,,2,,1150,0,1.1,1.9,1,646774e0f86825ab62c37581,48072,-1,6,46,37,1,fieldSmooth,5,1290.655,203.451,333.612,285.741,593.347,NaN,7.546,319.508
,19,0.098716,Hue-7 with Wave-8,,0,0,56.88150269999558,0.0403857662624596,,2,,1030,0,1.1,1.9,1,646774e0f86825ab62c37581,29918,-1,6,46,38,2,fieldSmooth,5,1290.655,203.451,333.612,285.741,593.347,NaN,7.546,319.508
,20,0.098716,Hue-7 with Wave-3,,0,0,56.88150269999558,0.0616666114118053,,2,,1531,0,1.1,1.9,1,646774e0f86825ab62c37581,14279,-1,6,46,39,1,fieldSmooth,5,686.007,164.925,267.442,285.274,220.175,NaN,4.679,152.394
,20,0.098716,Hue-7 with Wave-3,,0,0,56.88150269999558,0.121956863796623,,2,,1066,0,1.1,1.9,1,646774e0f86825ab62c37581,25196,-1,2,46,40,2,fieldSmooth,5,686.007,164.925,267.442,285.274,220.175,NaN,4.679,152.394
,21,0.098716,Hue-5 with Wave-1,,0,0,27.949694569807928,0.0825835129797125,,2,,1954,0,1.1,1.9,1,646774e0f86825ab62c37581,27078,-1,6,46,41,1,fieldSmooth,5,477.487,107.440,186.484,200.212,79.963,NaN,1.943,94.476
,21,0.098716,Hue-5 with Wave-1,,0,0,27.949694569807928,0.1040185796664674,,2,,857,0,1.1,1.9,1,646774e0f86825ab62c37581,21863,-1,2,46,42,2,fieldSmooth,5,477.487,107.440,186.484,200.212,79.963,NaN,1.943,94.476
,23,0.098716,Hue-3 with Wave-0,,1,0,44.73369780893667,0.1628298361098129,,2,,1696,2,1.1,1.9,1,646774e0f86825ab62c37581,16148,1,2,46,45,1,fieldSmooth,5,118.198,68.864,92.910,102.415,21.908,NaN,1.621,63.850
,23,0.098716,Hue-3 with Wave-0,,0,0,44.73369780893667,0.1049437466248318,,2,,1239,0,1.1,1.9,1,646774e0f86825ab62c37581,10664,-1,2,46,46,2,fieldSmooth,5,118.198,68.864,92.910,102.415,21.908,NaN,1.621,63.850
,27,0.098716,Hue-3 with Wave-9,,0,0,44.73369780893667,0.0682227119281508,,2,,1050,0,1.1,1.9,1,646774e0f86825ab62c37581,1586,-1,2,46,49,1,fieldSmooth,5,341.029,156.596,278.331,139.275,497.621,NaN,3.547,449.628
,27,0.098716,Hue-3 with Wave-9,,1,0,44.73369780893667,0.0609044861758464,,2,,887,2,1.1,1.9,1,646774e0f86825ab62c37581,1755,1,4,46,50,2,fieldSmooth,5,341.029,156.596,278.331,139.275,497.621,NaN,3.547,449.628
,28,0.098716,Hue-3 with Wave-7,,0,0,44.73369780893667,0.0728508451754437,,2,,1187,0,1.1,1.9,1,646774e0f86825ab62c37581,1648,-1,1,46,51,1,fieldSmooth,5,373.896,157.447,278.110,132.824,433.919,NaN,4.028,367.596
,28,0.098716,Hue-3 with Wave-7,,0,0,44.73369780893667,0.0601115962870299,,2,,812,0,1.1,1.9,1,646774e0f86825ab62c37581,1845,-1,6,46,52,2,fieldSmooth,5,373.896,157.447,278.110,132.824,433.919,NaN,4.028,367.596
,29,0.098716,Hue-7 with Wave-6,,1,0,56.88150269999558,0.1004394790502616,,2,,1073,1,1.1,1.9,1,646774e0f86825ab62c37581,1469,0,2,46,53,1,fieldSmooth,5,948.622,191.297,310.729,285.082,432.140,NaN,5.026,339.065
,29,0.098716,Hue-7 with Wave-6,,0,0,56.88150269999558,0.1157622142197717,,2,,738,0,1.1,1.9,1,646774e0f86825ab62c37581,1605,-1,4,46,54,2,fieldSmooth,5,948.622,191.297,310.729,285.082,432.140,NaN,5.026,339.065
,30,0.098716,Hue-7 with Wave-9,,0,0,56.88150269999558,0.0853573490877782,,2,,1120,0,1.1,1.9,1,646774e0f86825ab62c37581,1314,-1,3,46,55,1,fieldSmooth,5,1459.625,210.825,337.316,299.840,641.050,NaN,5.291,370.122
,30,0.098716,Hue-7 with Wave-9,,0,0,56.88150269999558,0.0998515860732909,,2,,984,0,1.1,1.9,1,646774e0f86825ab62c37581,1531,-1,5,46,56,2,fieldSmooth,5,1459.625,210.825,337.316,299.840,641.050,NaN,5.291,370.122
,33,0.098716,Hue-5 with Wave-5,,1,0,27.949694569807928,0.0829247721723127,,2,,1035,2,1.1,1.9,1,646774e0f86825ab62c37581,1283,1,2,46,61,1,fieldSmooth,5,497.170,167.832,291.197,225.627,363.164,NaN,3.163,265.949
,33,0.098716,Hue-5 with Wave-5,,0,0,27.949694569807928,0.0665378538975405,,2,,928,0,1.1,1.9,1,646774e0f86825ab62c37581,1396,-1,5,46,62,2,fieldSmooth,5,497.170,167.832,291.197,225.627,363.164,NaN,3.163,265.949
,34,0.098716,Hue-5 with Wave-8,,1,0,27.949694569807928,0.0577124084082709,,2,,1074,2,1.1,1.9,1,646774e0f86825ab62c37581,1267,1,3,46,63,1,fieldSmooth,5,1198.617,170.755,312.144,202.096,603.286,NaN,7.411,204.245
,34,0.098716,Hue-5 with Wave-8,,0,0,27.949694569807928,0.0706793702199227,,2,,987,0,1.1,1.9,1,646774e0f86825ab62c37581,1393,-1,4,46,64,2,fieldSmooth,5,1198.617,170.755,312.144,202.096,603.286,NaN,7.411,204.245
,35,0.098716,Hue-5 with Wave-9,,1,0,27.949694569807928,0.0635953870998019,,2,,1461,1,1.1,1.9,1,646774e0f86825ab62c37581,1286,0,1,46,65,1,fieldSmooth,5,898.236,192.003,329.731,215.222,659.759,NaN,3.791,355.231
,35,0.098716,Hue-5 with Wave-9,,1,0,27.949694569807928,0.0741653155653465,,2,,1108,1,1.1,1.9,1,646774e0f86825ab62c37581,1465,0,2,46,66,2,fieldSmooth,5,898.236,192.003,329.731,215.222,659.759,NaN,3.791,355.231
,38,0.098716,Hue-3 with Wave-2,,0,0,44.73369780893667,0.0901846747360792,,2,,1166,0,1.1,1.9,1,646774e0f86825ab62c37581,1404,-1,4,46,69,1,fieldSmooth,5,152.468,114.999,213.563,104.095,146.563,NaN,2.403,186.612
,38,0.098716,Hue-3 with Wave-2,,0,0,44.73369780893667,0.0708306924420621,,2,,765,0,1.1,1.9,1,646774e0f86825ab62c37581,1586,-1,1,46,70,2,fieldSmooth,5,152.468,114.999,213.563,104.095,146.563,NaN,2.403,186.612
,39,0.098716,Hue-3 with Wave-5,,1,0,44.73369780893667,0.048814508671942,,2,,1201,2,1.1,1.9,1,646774e0f86825ab62c37581,1471,1,6,46,71,1,fieldSmooth,5,361.023,151.970,267.393,139.501,334.997,NaN,2.997,269.342
,39,0.098716,Hue-3 with Wave-5,,0,0,44.73369780893667,0.0486803870812258,,2,,844,0,1.1,1.9,1,646774e0f86825ab62c37581,1956,-1,2,46,72,2,fieldSmooth,5,361.023,151.970,267.393,139.501,334.997,NaN,2.997,269.342
,40,0.098716,Hue-3 with Wave-6,,0,0,44.73369780893667,0.0921977184496149,,2,,1066,0,1.1,1.9,1,646774e0f86825ab62c37581,1315,-1,4,46,73,1,fieldSmooth,5,462.659,152.075,284.093,112.266,412.505,NaN,4.247,334.123
,40,0.098716,Hue-3 with Wave-6,,0,0,44.73369780893667,0.0868596079140131,,2,,765,0,1.1,1.9,1,646774e0f86825ab62c37581,1673,-1,3,46,74,2,fieldSmooth,5,462.659,152.075,284.093,112.266,412.505,NaN,4.247,334.123
,41,0.098716,Hue-5 with Wave-4,,0,0,27.949694569807928,0.0657232159521459,,2,,822,0,1.1,1.9,1,646774e0f86825ab62c37581,1457,-1,1,46,75,1,fieldSmooth,5,473.153,157.966,276.246,214.420,302.125,NaN,4.966,211.766
,41,0.098716,Hue-5 with Wave-4,,0,0,27.949694569807928,0.0579702956969109,,2,,837,0,1.1,1.9,1,646774e0f86825ab62c37581,1486,-1,2,46,76,2,fieldSmooth,5,473.153,157.966,276.246,214.420,302.125,NaN,4.966,211.766
,42,0.098716,Hue-7 with Wave-1,,1,0,56.88150269999558,0.1128759454658671,,2,,1044,2,1.1,1.9,1,646774e0f86825ab62c37581,1165,1,4,46,77,1,fieldSmooth,5,675.509,137.343,216.444,279.230,78.100,NaN,4.173,212.354
,42,0.098716,Hue-7 with Wave-1,,0,0,56.88150269999558,0.0724659790111184,,2,,855,0,1.1,1.9,1,646774e0f86825ab62c37581,1527,-1,1,46,78,2,fieldSmooth,5,675.509,137.343,216.444,279.230,78.100,NaN,4.173,212.354
45-54,3,0.098716,Hue-7 with Wave-7,,1,0,50.80507908801665,0.0958098218728004,bachelor,3,male,1844,1,1.1,1.9,1,64788046d0fc88f991d3847c,25946,0,2,78,5,1,fieldSmooth,6,1265.892,198.224,324.358,285.096,511.359,NaN,5.302,347.206
45-54,3,0.098716,Hue-7 with Wave-7,,1,0,50.80507908801665,0.0787558234803093,bachelor,3,male,1284,1,1.1,1.9,1,64788046d0fc88f991d3847c,19534,0,4,78,6,2,fieldSmooth,6,1265.892,198.224,324.358,285.096,511.359,NaN,5.302,347.206
45-54,4,0.098716,Hue-7 with Wave-0,,1,0,50.80507908801665,0.0582927713317275,bachelor,3,male,1567,1,1.1,1.9,1,64788046d0fc88f991d3847c,16862,0,6,78,7,1,fieldSmooth,6,878.760,135.528,174.341,278.388,38.597,NaN,3.899,126.772
45-54,4,0.098716,Hue-7 with Wave-0,,1,0,50.80507908801665,0.094049270890424,bachelor,3,male,1215,1,1.1,1.9,1,64788046d0fc88f991d3847c,17937,0,3,78,8,2,fieldSmooth,6,878.760,135.528,174.341,278.388,38.597,NaN,3.899,126.772
45-54,5,0.098716,Hue-7 with Wave-8,,1,0,50.80507908801665,0.0838837924233703,bachelor,3,male,1655,2,1.1,1.9,1,64788046d0fc88f991d3847c,20577,1,4,78,9,1,fieldSmooth,6,1210.764,204.402,335.061,285.649,597.507,NaN,7.555,331.141
45-54,5,0.098716,Hue-7 with Wave-8,,1,0,50.80507908801665,0.0895501538069735,bachelor,3,male,1270,1,1.1,1.9,1,64788046d0fc88f991d3847c,8587,0,4,78,10,2,fieldSmooth,6,1210.764,204.402,335.061,285.649,597.507,NaN,7.555,331.141
45-54,6,0.098716,Hue-3 with Wave-6,,1,0,48.88652920118138,0.0840033984834565,bachelor,3,male,1441,1,1.1,1.9,1,64788046d0fc88f991d3847c,21783,0,1,78,11,1,fieldSmooth,6,321.556,157.019,282.505,121.972,405.871,NaN,4.104,359.974
45-54,6,0.098716,Hue-3 with Wave-6,,1,0,48.88652920118138,0.0611554042099073,bachelor,3,male,1326,1,1.1,1.9,1,64788046d0fc88f991d3847c,8127,0,5,78,12,2,fieldSmooth,6,321.556,157.019,282.505,121.972,405.871,NaN,4.104,359.974
45-54,7,0.098716,Hue-3 with Wave-3,,1,0,48.88652920118138,0.0615209436047798,bachelor,3,male,2157,1,1.1,1.9,1,64788046d0fc88f991d3847c,6056,0,1,78,13,1,fieldSmooth,6,368.800,132.809,245.523,116.570,219.463,NaN,3.006,184.069
45-54,7,0.098716,Hue-3 with Wave-3,,1,0,48.88652920118138,0.0563959418308573,bachelor,3,male,1383,1,1.1,1.9,1,64788046d0fc88f991d3847c,21769,0,1,78,14,2,fieldSmooth,6,368.800,132.809,245.523,116.570,219.463,NaN,3.006,184.069
45-54,8,0.098716,Hue-3 with Wave-1,,1,0,48.88652920118138,0.0707631711742782,bachelor,3,male,1627,2,1.1,1.9,1,64788046d0fc88f991d3847c,8111,1,5,78,15,1,fieldSmooth,6,70.615,103.018,185.468,140.289,77.609,NaN,1.381,120.619
45-54,8,0.098716,Hue-3 with Wave-1,,1,0,48.88652920118138,0.0791029178139905,bachelor,3,male,1239,2,1.1,1.9,1,64788046d0fc88f991d3847c,21333,1,1,78,16,2,fieldSmooth,6,70.615,103.018,185.468,140.289,77.609,NaN,1.381,120.619
45-54,9,0.098716,Hue-5 with Wave-9,,1,0,6.782622075387934,0.1062189933042115,bachelor,3,male,1354,1,1.1,1.9,1,64788046d0fc88f991d3847c,8968,0,1,78,17,1,fieldSmooth,6,536.592,189.602,329.793,211.415,658.122,NaN,3.142,340.417
45-54,9,0.098716,Hue-5 with Wave-9,,1,0,6.782622075387934,0.0835758024966085,bachelor,3,male,1323,2,1.1,1.9,1,64788046d0fc88f991d3847c,16956,1,4,78,18,2,fieldSmooth,6,536.592,189.602,329.793,211.415,658.122,NaN,3.142,340.417
45-54,10,0.098716,Hue-3 with Wave-5,,1,0,48.88652920118138,0.0870664616363938,bachelor,3,male,1740,1,1.1,1.9,1,64788046d0fc88f991d3847c,12875,0,6,78,19,1,fieldSmooth,6,178.561,148.329,263.738,130.696,329.277,NaN,3.253,284.186
45-54,10,0.098716,Hue-3 with Wave-5,,1,0,48.88652920118138,0.0766243166871688,bachelor,3,male,1386,1,1.1,1.9,1,64788046d0fc88f991d3847c,13211,0,2,78,20,2,fieldSmooth,6,178.561,148.329,263.738,130.696,329.277,NaN,3.253,284.186
45-54,11,0.098716,Hue-3 with Wave-8,,1,0,48.88652920118138,0.0685992848002198,bachelor,3,male,1511,1,1.1,1.9,1,64788046d0fc88f991d3847c,8316,0,5,78,21,1,fieldSmooth,6,333.298,150.117,277.830,119.012,467.467,NaN,6.165,361.208
45-54,11,0.098716,Hue-3 with Wave-8,,1,0,48.88652920118138,0.0641443194097499,bachelor,3,male,1405,2,1.1,1.9,1,64788046d0fc88f991d3847c,27847,1,4,78,22,2,fieldSmooth,6,333.298,150.117,277.830,119.012,467.467,NaN,6.165,361.208
45-54,13,0.098716,Hue-7 with Wave-3,,1,0,50.80507908801665,0.070771864936844,bachelor,3,male,1636,1,1.1,1.9,1,64788046d0fc88f991d3847c,46679,0,6,78,25,1,fieldSmooth,6,739.291,163.794,266.509,283.387,219.131,NaN,4.555,153.123
45-54,13,0.098716,Hue-7 with Wave-3,,1,0,50.80507908801665,0.0598002924623931,bachelor,3,male,1314,1,1.1,1.9,1,64788046d0fc88f991d3847c,16654,0,5,78,26,2,fieldSmooth,6,739.291,163.794,266.509,283.387,219.131,NaN,4.555,153.123
45-54,15,0.098716,Hue-5 with Wave-1,,1,0,6.782622075387934,0.0521823388133605,bachelor,3,male,1745,2,1.1,1.9,1,64788046d0fc88f991d3847c,8328,1,4,78,29,1,fieldSmooth,6,447.647,105.750,189.155,205.385,80.284,NaN,1.924,114.442
45-54,15,0.098716,Hue-5 with Wave-1,,1,0,6.782622075387934,0.0764929806717209,bachelor,3,male,1276,1,1.1,1.9,1,64788046d0fc88f991d3847c,17829,0,1,78,30,2,fieldSmooth,6,447.647,105.750,189.155,205.385,80.284,NaN,1.924,114.442
45-54,16,0.098716,Hue-5 with Wave-3,,1,0,6.782622075387934,0.0675050661778394,bachelor,3,male,1411,1,1.1,1.9,1,64788046d0fc88f991d3847c,16129,0,1,78,31,1,fieldSmooth,6,522.756,147.726,265.240,205.922,231.970,NaN,3.068,136.893
45-54,16,0.098716,Hue-5 with Wave-3,,1,0,6.782622075387934,0.0900035564734535,bachelor,3,male,1682,2,1.1,1.9,1,64788046d0fc88f991d3847c,12410,1,1,78,32,2,fieldSmooth,6,522.756,147.726,265.240,205.922,231.970,NaN,3.068,136.893
45-54,17,0.098716,Hue-5 with Wave-0,,1,0,6.782622075387934,0.0490118092445819,bachelor,3,male,1647,2,1.1,1.9,1,64788046d0fc88f991d3847c,13231,1,6,78,33,1,fieldSmooth,6,423.023,85.497,112.990,193.453,20.096,NaN,2.241,74.010
45-54,17,0.098716,Hue-5 with Wave-0,,1,0,6.782622075387934,0.1133137634637848,bachelor,3,male,1242,1,1.1,1.9,1,64788046d0fc88f991d3847c,5277,0,6,78,34,2,fieldSmooth,6,423.023,85.497,112.990,193.453,20.096,NaN,2.241,74.010
45-54,18,0.098716,Hue-3 with Wave-4,,1,0,48.88652920118138,0.0920368191648478,bachelor,3,male,1642,1,1.1,1.9,1,64788046d0fc88f991d3847c,10836,0,2,78,35,1,fieldSmooth,6,301.290,147.640,263.251,135.044,282.114,NaN,4.899,241.918
45-54,18,0.098716,Hue-3 with Wave-4,,1,0,48.88652920118138,0.0365834187118682,bachelor,3,male,1330,2,1.1,1.9,1,64788046d0fc88f991d3847c,16019,1,3,78,36,2,fieldSmooth,6,301.290,147.640,263.251,135.044,282.114,NaN,4.899,241.918
45-54,19,0.098716,Hue-3 with Wave-9,,1,0,48.88652920118138,0.0602023719942308,bachelor,3,male,1757,2,1.1,1.9,1,64788046d0fc88f991d3847c,17758,1,5,78,37,1,fieldSmooth,6,343.426,159.320,284.167,135.924,508.241,NaN,3.495,469.446
45-54,19,0.098716,Hue-3 with Wave-9,,1,0,48.88652920118138,0.1045385137860623,bachelor,3,male,1378,1,1.1,1.9,1,64788046d0fc88f991d3847c,6265,0,5,78,38,2,fieldSmooth,6,343.426,159.320,284.167,135.924,508.241,NaN,3.495,469.446
45-54,21,0.098716,Hue-7 with Wave-5,,1,0,50.80507908801665,0.096722701103795,bachelor,3,male,1659,2,1.1,1.9,1,64788046d0fc88f991d3847c,18828,1,4,78,41,1,fieldSmooth,6,1023.593,186.846,301.870,290.657,359.408,NaN,5.192,326.982
45-54,21,0.098716,Hue-7 with Wave-5,,1,0,50.80507908801665,0.1471521179377291,bachelor,3,male,1246,1,1.1,1.9,1,64788046d0fc88f991d3847c,7812,0,1,78,42,2,fieldSmooth,6,1023.593,186.846,301.870,290.657,359.408,NaN,5.192,326.982
45-54,24,0.098716,Hue-3 with Wave-2,,1,0,48.88652920118138,0.0716199376083339,bachelor,3,male,1540,1,1.1,1.9,1,64788046d0fc88f991d3847c,37638,0,3,78,47,1,fieldSmooth,6,265.324,114.974,214.009,97.992,147.238,NaN,2.247,186.373
45-54,24,0.098716,Hue-3 with Wave-2,,1,0,48.88652920118138,0.0405041741052544,bachelor,3,male,1352,2,1.1,1.9,1,64788046d0fc88f991d3847c,8314,1,5,78,48,2,fieldSmooth,6,265.324,114.974,214.009,97.992,147.238,NaN,2.247,186.373
45-54,25,0.098716,Hue-7 with Wave-6,,1,0,50.80507908801665,0.0813702528971516,bachelor,3,male,1528,1,1.1,1.9,1,64788046d0fc88f991d3847c,12624,0,1,78,49,1,fieldSmooth,6,900.088,186.463,302.388,283.981,417.502,NaN,4.518,328.905
45-54,25,0.098716,Hue-7 with Wave-6,,1,0,50.80507908801665,0.0418962294831813,bachelor,3,male,1410,2,1.1,1.9,1,64788046d0fc88f991d3847c,21684,1,2,78,50,2,fieldSmooth,6,900.088,186.463,302.388,283.981,417.502,NaN,4.518,328.905
45-54,27,0.098716,Hue-7 with Wave-1,,1,0,50.80507908801665,0.0770667190067723,bachelor,3,male,1756,2,1.1,1.9,1,64788046d0fc88f991d3847c,5050,1,2,78,53,1,fieldSmooth,6,706.630,135.886,210.561,278.281,76.593,NaN,3.903,176.208
45-54,27,0.098716,Hue-7 with Wave-1,,1,0,50.80507908801665,0.0430681814976126,bachelor,3,male,1426,1,1.1,1.9,1,64788046d0fc88f991d3847c,9325,0,6,78,54,2,fieldSmooth,6,706.630,135.886,210.561,278.281,76.593,NaN,3.903,176.208
45-54,29,0.098716,Hue-5 with Wave-2,,1,0,6.782622075387934,0.0738445471089951,bachelor,3,male,1588,2,1.1,1.9,1,64788046d0fc88f991d3847c,6394,1,5,78,55,1,fieldSmooth,6,447.749,127.822,230.531,203.402,158.458,NaN,2.609,87.142
45-54,29,0.098716,Hue-5 with Wave-2,,1,0,6.782622075387934,0.0743757140218548,bachelor,3,male,1159,2,1.1,1.9,1,64788046d0fc88f991d3847c,10303,1,1,78,56,2,fieldSmooth,6,447.749,127.822,230.531,203.402,158.458,NaN,2.609,87.142
45-54,30,0.098716,Hue-3 with Wave-7,,1,0,48.88652920118138,0.0655481652821632,bachelor,3,male,1704,2,1.1,1.9,1,64788046d0fc88f991d3847c,14835,1,2,78,57,1,fieldSmooth,6,428.709,158.788,278.180,137.225,429.933,NaN,4.099,378.885
45-54,30,0.098716,Hue-3 with Wave-7,,1,0,48.88652920118138,0.0622252964588874,bachelor,3,male,1325,2,1.1,1.9,1,64788046d0fc88f991d3847c,14107,1,6,78,58,2,fieldSmooth,6,428.709,158.788,278.180,137.225,429.933,NaN,4.099,378.885
45-54,31,0.098716,Hue-3 with Wave-0,,1,0,48.88652920118138,0.0716591141036658,bachelor,3,male,2275,1,1.1,1.9,1,64788046d0fc88f991d3847c,6063,0,2,78,59,1,fieldSmooth,6,136.647,69.332,94.320,101.863,23.572,NaN,1.350,64.040
45-54,31,0.098716,Hue-3 with Wave-0,,1,0,48.88652920118138,0.0829070116873537,bachelor,3,male,1119,1,1.1,1.9,1,64788046d0fc88f991d3847c,8157,0,4,78,60,2,fieldSmooth,6,136.647,69.332,94.320,101.863,23.572,NaN,1.350,64.040
45-54,32,0.098716,Hue-7 with Wave-2,,1,0,50.80507908801665,0.1304660759613649,bachelor,3,male,1449,1,1.1,1.9,1,64788046d0fc88f991d3847c,9438,0,6,78,61,1,fieldSmooth,6,645.751,159.866,260.105,284.619,159.327,NaN,3.626,192.832
45-54,32,0.098716,Hue-7 with Wave-2,,1,0,50.80507908801665,0.1094039987923096,bachelor,3,male,1227,1,1.1,1.9,1,64788046d0fc88f991d3847c,8363,0,2,78,62,2,fieldSmooth,6,645.751,159.866,260.105,284.619,159.327,NaN,3.626,192.832
45-54,34,0.098716,Hue-5 with Wave-8,,1,0,6.782622075387934,0.0654876142785959,bachelor,3,male,1630,1,1.1,1.9,1,64788046d0fc88f991d3847c,18275,0,5,78,65,1,fieldSmooth,6,978.978,171.824,312.462,207.592,601.249,NaN,6.995,166.318
45-54,34,0.098716,Hue-5 with Wave-8,,1,0,6.782622075387934,0.0398520353212021,bachelor,3,male,1329,1,1.1,1.9,1,64788046d0fc88f991d3847c,6447,0,5,78,66,2,fieldSmooth,6,978.978,171.824,312.462,207.592,601.249,NaN,6.995,166.318
45-54,36,0.098716,Hue-7 with Wave-9,,1,0,50.80507908801665,0.1284034528444349,bachelor,3,male,1466,1,1.1,1.9,1,64788046d0fc88f991d3847c,5085,0,4,78,67,1,fieldSmooth,6,1556.804,210.646,337.360,298.454,646.226,NaN,5.356,377.983
45-54,36,0.098716,Hue-7 with Wave-9,,1,0,50.80507908801665,0.0878680628247323,bachelor,3,male,1185,1,1.1,1.9,1,64788046d0fc88f991d3847c,7565,0,4,78,68,2,fieldSmooth,6,1556.804,210.646,337.360,298.454,646.226,NaN,5.356,377.983
45-54,37,0.098716,Hue-5 with Wave-5,,1,0,6.782622075387934,0.0816464979164752,bachelor,3,male,1754,2,1.1,1.9,1,64788046d0fc88f991d3847c,11133,1,3,78,69,1,fieldSmooth,6,586.881,168.780,295.715,223.802,374.611,NaN,3.593,178.331
45-54,37,0.098716,Hue-5 with Wave-5,,1,0,6.782622075387934,0.0610029290678282,bachelor,3,male,1298,2,1.1,1.9,1,64788046d0fc88f991d3847c,25094,1,1,78,70,2,fieldSmooth,6,586.881,168.780,295.715,223.802,374.611,NaN,3.593,178.331
45-54,38,0.098716,Hue-5 with Wave-6,,1,0,6.782622075387934,0.1645350782759436,bachelor,3,male,1625,1,1.1,1.9,1,64788046d0fc88f991d3847c,6553,0,1,78,71,1,fieldSmooth,6,586.415,171.526,297.578,228.038,440.646,NaN,3.258,184.950
45-54,38,0.098716,Hue-5 with Wave-6,,1,0,6.782622075387934,0.0688438086600155,bachelor,3,male,1279,2,1.1,1.9,1,64788046d0fc88f991d3847c,10105,1,6,78,72,2,fieldSmooth,6,586.415,171.526,297.578,228.038,440.646,NaN,3.258,184.950
45-54,40,0.098716,Hue-5 with Wave-4,,1,0,6.782622075387934,0.0557828862353154,bachelor,3,male,1727,2,1.1,1.9,1,64788046d0fc88f991d3847c,10408,1,1,78,73,1,fieldSmooth,6,504.783,159.375,284.104,206.986,307.895,NaN,4.418,197.406
45-54,40,0.098716,Hue-5 with Wave-4,,1,0,6.782622075387934,0.1190577975060618,bachelor,3,male,1338,1,1.1,1.9,1,64788046d0fc88f991d3847c,9845,0,4,78,74,2,fieldSmooth,6,504.783,159.375,284.104,206.986,307.895,NaN,4.418,197.406
45-54,41,0.098716,Hue-7 with Wave-4,,1,0,50.80507908801665,0.0541973927646116,bachelor,3,male,2450,2,1.1,1.9,1,64788046d0fc88f991d3847c,4708,1,4,78,75,1,fieldSmooth,6,738.095,178.258,288.246,294.995,303.243,NaN,5.134,222.547
45-54,41,0.098716,Hue-7 with Wave-4,,1,0,50.80507908801665,0.0731586155864357,bachelor,3,male,1273,1,1.1,1.9,1,64788046d0fc88f991d3847c,5279,0,3,78,76,2,fieldSmooth,6,738.095,178.258,288.246,294.995,303.243,NaN,5.134,222.547
45-54,42,0.098716,Hue-5 with Wave-7,,1,0,6.782622075387934,0.1292089761864429,bachelor,3,male,1698,2,1.1,1.9,1,64788046d0fc88f991d3847c,14854,1,6,78,77,1,fieldSmooth,6,616.477,181.135,316.502,212.745,515.320,NaN,2.981,277.200
45-54,42,0.098716,Hue-5 with Wave-7,,1,0,6.782622075387934,0.0517243131311009,bachelor,3,male,1261,1,1.1,1.9,1,64788046d0fc88f991d3847c,13637,0,2,78,78,2,fieldSmooth,6,616.477,181.135,316.502,212.745,515.320,NaN,2.981,277.200
,1,0.098716,Hue-5 with Wave-6,,1,0,51.46676939640479,0.0588280295794047,,3,,906,1,1.1,1.9,1,664439645a9a29be43d5bf5a,18063,0,2,78,1,1,fieldSmooth,7,667.045,173.450,298.272,214.671,437.221,NaN,4.704,246.410
,1,0.098716,Hue-5 with Wave-6,,1,0,51.46676939640479,0.077799117631225,,3,,827,1,1.1,1.9,1,664439645a9a29be43d5bf5a,7405,0,2,78,2,2,fieldSmooth,7,667.045,173.450,298.272,214.671,437.221,NaN,4.704,246.410
,3,0.098716,Hue-3 with Wave-0,,1,0,20.45283441089402,0.0521745708983958,,3,,1049,1,1.1,1.9,1,664439645a9a29be43d5bf5a,19688,0,3,78,5,1,fieldSmooth,7,115.068,54.479,70.839,100.323,16.389,NaN,1.475,56.054
,3,0.098716,Hue-3 with Wave-0,,1,0,20.45283441089402,0.1067536514244101,,3,,787,1,1.1,1.9,1,664439645a9a29be43d5bf5a,11264,0,3,78,6,2,fieldSmooth,7,115.068,54.479,70.839,100.323,16.389,NaN,1.475,56.054
,4,0.098716,Hue-3 with Wave-2,,1,0,20.45283441089402,0.0876658338891899,,3,,934,1,1.1,1.9,1,664439645a9a29be43d5bf5a,8379,0,5,78,7,1,fieldSmooth,7,287.834,114.167,215.282,131.148,150.513,NaN,2.488,106.908
,4,0.098716,Hue-3 with Wave-2,,1,0,20.45283441089402,0.0929383958090853,,3,,803,1,1.1,1.9,1,664439645a9a29be43d5bf5a,9654,0,3,78,8,2,fieldSmooth,7,287.834,114.167,215.282,131.148,150.513,NaN,2.488,106.908
,5,0.098716,Hue-7 with Wave-1,,1,0,24.67204480014682,0.1043998086146354,,3,,839,1,1.1,1.9,1,664439645a9a29be43d5bf5a,8070,0,2,78,9,1,fieldSmooth,7,1032.247,134.695,198.431,281.935,73.602,NaN,4.405,120.057
,5,0.098716,Hue-7 with Wave-1,,1,0,24.67204480014682,0.0470856348641751,,3,,805,2,1.1,1.9,1,664439645a9a29be43d5bf5a,9641,1,5,78,10,2,fieldSmooth,7,1032.247,134.695,198.431,281.935,73.602,NaN,4.405,120.057
,6,0.098716,Hue-3 with Wave-8,,1,0,20.45283441089402,0.0609724879265288,,3,,1021,2,1.1,1.9,1,664439645a9a29be43d5bf5a,6121,1,6,78,11,1,fieldSmooth,7,387.430,147.836,270.503,134.484,471.289,NaN,5.215,303.793
,6,0.098716,Hue-3 with Wave-8,,1,0,20.45283441089402,0.0707175910349076,,3,,748,2,1.1,1.9,1,664439645a9a29be43d5bf5a,20981,1,5,78,12,2,fieldSmooth,7,387.430,147.836,270.503,134.484,471.289,NaN,5.215,303.793
,7,0.098716,Hue-3 with Wave-5,,1,0,20.45283441089402,0.0675471823532635,,3,,923,1,1.1,1.9,1,664439645a9a29be43d5bf5a,8943,0,6,78,13,1,fieldSmooth,7,171.987,146.841,271.796,118.688,366.295,NaN,3.215,247.334
,7,0.098716,Hue-3 with Wave-5,,1,0,20.45283441089402,0.0963002940747642,,3,,748,1,1.1,1.9,1,664439645a9a29be43d5bf5a,13378,0,3,78,14,2,fieldSmooth,7,171.987,146.841,271.796,118.688,366.295,NaN,3.215,247.334
,9,0.098716,Hue-3 with Wave-9,,1,0,20.45283441089402,0.0469323801466546,,3,,967,1,1.1,1.9,1,664439645a9a29be43d5bf5a,13764,0,6,78,17,1,fieldSmooth,7,118.786,147.032,266.906,139.805,503.967,NaN,2.422,367.688
,9,0.098716,Hue-3 with Wave-9,,1,0,20.45283441089402,0.0875153417652137,,3,,784,1,1.1,1.9,1,664439645a9a29be43d5bf5a,12859,0,6,78,18,2,fieldSmooth,7,118.786,147.032,266.906,139.805,503.967,NaN,2.422,367.688
,10,0.098716,Hue-5 with Wave-7,,1,0,51.46676939640479,0.0913668825555114,,3,,944,1,1.1,1.9,1,664439645a9a29be43d5bf5a,10213,0,6,78,19,1,fieldSmooth,7,590.247,185.798,312.058,227.066,498.029,NaN,4.108,318.948
,10,0.098716,Hue-5 with Wave-7,,1,0,51.46676939640479,0.0718510931065234,,3,,748,2,1.1,1.9,1,664439645a9a29be43d5bf5a,7985,1,5,78,20,2,fieldSmooth,7,590.247,185.798,312.058,227.066,498.029,NaN,4.108,318.948
,12,0.098716,Hue-3 with Wave-7,,1,0,20.45283441089402,0.0988828638246002,,3,,885,2,1.1,1.9,1,664439645a9a29be43d5bf5a,29031,1,3,78,23,1,fieldSmooth,7,417.879,161.715,290.681,135.100,492.304,NaN,3.314,342.258
,12,0.098716,Hue-3 with Wave-7,,1,0,20.45283441089402,0.0938777628220485,,3,,771,1,1.1,1.9,1,664439645a9a29be43d5bf5a,4706,0,1,78,24,2,fieldSmooth,7,417.879,161.715,290.681,135.100,492.304,NaN,3.314,342.258
,14,0.098716,Hue-3 with Wave-6,,1,0,20.45283441089402,0.0393345014550969,,3,,971,1,1.1,1.9,1,664439645a9a29be43d5bf5a,8974,0,4,78,25,1,fieldSmooth,7,431.404,157.929,290.259,126.626,443.953,NaN,3.696,293.648
,14,0.098716,Hue-3 with Wave-6,,1,0,20.45283441089402,0.0708811045031061,,3,,739,2,1.1,1.9,1,664439645a9a29be43d5bf5a,12457,1,3,78,26,2,fieldSmooth,7,431.404,157.929,290.259,126.626,443.953,NaN,3.696,293.648
,16,0.098716,Hue-7 with Wave-2,,1,0,24.67204480014682,0.0724624875017302,,3,,881,2,1.1,1.9,1,664439645a9a29be43d5bf5a,9525,1,1,78,29,1,fieldSmooth,7,678.098,157.308,250.380,283.698,159.485,NaN,3.914,103.720
,16,0.098716,Hue-7 with Wave-2,,1,0,24.67204480014682,0.0633536951540741,,3,,766,1,1.1,1.9,1,664439645a9a29be43d5bf5a,8112,0,6,78,30,2,fieldSmooth,7,678.098,157.308,250.380,283.698,159.485,NaN,3.914,103.720
,17,0.098716,Hue-7 with Wave-3,,1,0,24.67204480014682,0.0922008877602284,,3,,921,1,1.1,1.9,1,664439645a9a29be43d5bf5a,19246,0,2,78,31,1,fieldSmooth,7,1009.989,162.708,263.272,284.195,215.513,NaN,5.232,133.477
,17,0.098716,Hue-7 with Wave-3,,1,0,24.67204480014682,0.0586472262874005,,3,,770,2,1.1,1.9,1,664439645a9a29be43d5bf5a,12693,1,6,78,32,2,fieldSmooth,7,1009.989,162.708,263.272,284.195,215.513,NaN,5.232,133.477
,18,0.098716,Hue-7 with Wave-5,,1,0,24.67204480014682,0.0755365992908858,,3,,937,1,1.1,1.9,1,664439645a9a29be43d5bf5a,12456,0,3,78,33,1,fieldSmooth,7,1074.695,189.715,301.532,297.461,358.953,NaN,4.632,261.782
,18,0.098716,Hue-7 with Wave-5,,1,0,24.67204480014682,0.0534930074470056,,3,,824,1,1.1,1.9,1,664439645a9a29be43d5bf5a,4971,0,5,78,34,2,fieldSmooth,7,1074.695,189.715,301.532,297.461,358.953,NaN,4.632,261.782
,19,0.098716,Hue-3 with Wave-1,,1,0,20.45283441089402,0.0951139896592772,,3,,891,2,1.1,1.9,1,664439645a9a29be43d5bf5a,12125,1,2,78,35,1,fieldSmooth,7,105.835,87.961,167.724,111.028,79.055,NaN,0.805,27.941
,19,0.098716,Hue-3 with Wave-1,,1,0,20.45283441089402,0.0730153859146711,,3,,748,2,1.1,1.9,1,664439645a9a29be43d5bf5a,6305,1,3,78,36,2,fieldSmooth,7,105.835,87.961,167.724,111.028,79.055,NaN,0.805,27.941
,21,0.098716,Hue-7 with Wave-6,,1,0,24.67204480014682,0.1185269069236311,,3,,948,1,1.1,1.9,1,664439645a9a29be43d5bf5a,9308,0,4,78,37,1,fieldSmooth,7,909.107,190.843,307.671,291.980,426.935,NaN,5.361,294.483
,21,0.098716,Hue-7 with Wave-6,,1,0,24.67204480014682,0.0737884448220886,,3,,742,1,1.1,1.9,1,664439645a9a29be43d5bf5a,9013,0,4,78,38,2,fieldSmooth,7,909.107,190.843,307.671,291.980,426.935,NaN,5.361,294.483
,22,0.098716,Hue-5 with Wave-9,,1,0,51.46676939640479,0.1156471732392174,,3,,996,1,1.1,1.9,1,664439645a9a29be43d5bf5a,5254,0,4,78,39,1,fieldSmooth,7,811.537,193.656,326.755,230.467,623.792,NaN,3.732,384.647
,22,0.098716,Hue-5 with Wave-9,,1,0,51.46676939640479,0.1056246514089293,,3,,777,1,1.1,1.9,1,664439645a9a29be43d5bf5a,8724,0,2,78,40,2,fieldSmooth,7,811.537,193.656,326.755,230.467,623.792,NaN,3.732,384.647
,23,0.098716,Hue-7 with Wave-9,,1,0,24.67204480014682,0.0761244125873154,,3,,761,1,1.1,1.9,1,664439645a9a29be43d5bf5a,8440,0,3,78,41,1,fieldSmooth,7,1184.007,208.921,333.455,300.546,631.910,NaN,5.278,379.680
,23,0.098716,Hue-7 with Wave-9,,1,0,24.67204480014682,0.0423369189729532,,3,,821,2,1.1,1.9,1,664439645a9a29be43d5bf5a,7381,1,4,78,42,2,fieldSmooth,7,1184.007,208.921,333.455,300.546,631.910,NaN,5.278,379.680
,24,0.098716,Hue-5 with Wave-1,,1,0,51.46676939640479,0.0983368946569936,,3,,972,2,1.1,1.9,1,664439645a9a29be43d5bf5a,12021,1,3,78,43,1,fieldSmooth,7,377.635,113.866,199.096,202.372,79.238,NaN,2.096,167.917
,24,0.098716,Hue-5 with Wave-1,,1,0,51.46676939640479,0.1071666851629494,,3,,775,2,1.1,1.9,1,664439645a9a29be43d5bf5a,7012,1,6,78,44,2,fieldSmooth,7,377.635,113.866,199.096,202.372,79.238,NaN,2.096,167.917
,25,0.098716,Hue-3 with Wave-4,,1,0,20.45283441089402,0.0555652513250725,,3,,983,2,1.1,1.9,1,664439645a9a29be43d5bf5a,8095,1,1,78,45,1,fieldSmooth,7,436.765,132.602,264.252,101.638,301.894,NaN,5.303,195.959
,25,0.098716,Hue-3 with Wave-4,,1,0,20.45283441089402,0.0871892709335311,,3,,720,1,1.1,1.9,1,664439645a9a29be43d5bf5a,6149,0,2,78,46,2,fieldSmooth,7,436.765,132.602,264.252,101.638,301.894,NaN,5.303,195.959
,27,0.098716,Hue-7 with Wave-0,,1,0,24.67204480014682,0.0858725190270933,,3,,934,1,1.1,1.9,1,664439645a9a29be43d5bf5a,7890,0,4,78,47,1,fieldSmooth,7,993.291,137.877,172.060,283.016,31.295,NaN,4.739,123.627
,27,0.098716,Hue-7 with Wave-0,,1,0,24.67204480014682,0.0880523464146037,,3,,879,2,1.1,1.9,1,664439645a9a29be43d5bf5a,14812,1,1,78,48,2,fieldSmooth,7,993.291,137.877,172.060,283.016,31.295,NaN,4.739,123.627
,28,0.098716,Hue-7 with Wave-4,,1,0,24.67204480014682,0.030593532637661,,3,,1016,1,1.1,1.9,1,664439645a9a29be43d5bf5a,19026,0,2,78,49,1,fieldSmooth,7,813.239,178.321,291.072,285.284,310.384,NaN,5.796,158.118
,28,0.098716,Hue-7 with Wave-4,,1,0,24.67204480014682,0.1165072729827512,,3,,757,2,1.1,1.9,1,664439645a9a29be43d5bf5a,9478,1,1,78,50,2,fieldSmooth,7,813.239,178.321,291.072,285.284,310.384,NaN,5.796,158.118
,29,0.098716,Hue-5 with Wave-4,,1,0,51.46676939640479,0.0866022006232261,,3,,961,1,1.1,1.9,1,664439645a9a29be43d5bf5a,6941,0,5,78,51,1,fieldSmooth,7,521.111,157.685,276.757,201.016,302.393,NaN,5.515,235.817
,29,0.098716,Hue-5 with Wave-4,,1,0,51.46676939640479,0.0748928788559345,,3,,776,1,1.1,1.9,1,664439645a9a29be43d5bf5a,19531,0,3,78,52,2,fieldSmooth,7,521.111,157.685,276.757,201.016,302.393,NaN,5.515,235.817
,31,0.098716,Hue-5 with Wave-0,,1,0,51.46676939640479,0.0517397568113413,,3,,918,1,1.1,1.9,1,664439645a9a29be43d5bf5a,7772,0,6,78,55,1,fieldSmooth,7,413.592,94.213,126.648,193.176,25.913,NaN,2.419,96.555
,31,0.098716,Hue-5 with Wave-0,,1,0,51.46676939640479,0.1493883975362003,,3,,693,1,1.1,1.9,1,664439645a9a29be43d5bf5a,6999,0,1,78,56,2,fieldSmooth,7,413.592,94.213,126.648,193.176,25.913,NaN,2.419,96.555
,33,0.098716,Hue-5 with Wave-8,,1,0,51.46676939640479,0.0810773038077803,,3,,959,2,1.1,1.9,1,664439645a9a29be43d5bf5a,4962,1,1,78,59,1,fieldSmooth,7,1028.278,179.317,318.662,213.315,581.900,NaN,7.156,257.808
,33,0.098716,Hue-5 with Wave-8,,1,0,51.46676939640479,0.0957974280644358,,3,,797,1,1.1,1.9,1,664439645a9a29be43d5bf5a,8196,0,1,78,60,2,fieldSmooth,7,1028.278,179.317,318.662,213.315,581.900,NaN,7.156,257.808
,34,0.098716,Hue-7 with Wave-8,,1,0,24.67204480014682,0.0658828119939944,,3,,897,1,1.1,1.9,1,664439645a9a29be43d5bf5a,9800,0,2,78,61,1,fieldSmooth,7,1155.102,205.630,328.932,298.188,558.367,NaN,7.199,393.151
,34,0.098716,Hue-7 with Wave-8,,1,0,24.67204480014682,0.0411075219691311,,3,,804,1,1.1,1.9,1,664439645a9a29be43d5bf5a,7521,0,1,78,62,2,fieldSmooth,7,1155.102,205.630,328.932,298.188,558.367,NaN,7.199,393.151
,35,0.098716,Hue-3 with Wave-3,,1,0,20.45283441089402,0.0712827789629549,,3,,889,1,1.1,1.9,1,664439645a9a29be43d5bf5a,10567,0,3,78,63,1,fieldSmooth,7,54.835,125.031,232.540,128.248,211.446,NaN,1.852,169.985
,35,0.098716,Hue-3 with Wave-3,,1,0,20.45283441089402,0.0966349116049195,,3,,775,1,1.1,1.9,1,664439645a9a29be43d5bf5a,7946,0,4,78,64,2,fieldSmooth,7,54.835,125.031,232.540,128.248,211.446,NaN,1.852,169.985
,36,0.098716,Hue-5 with Wave-3,,1,0,51.46676939640479,0.0319100437483521,,3,,1012,1,1.1,1.9,1,664439645a9a29be43d5bf5a,8866,0,1,78,65,1,fieldSmooth,7,349.861,151.062,257.720,219.910,218.296,NaN,3.166,230.519
,36,0.098716,Hue-5 with Wave-3,,1,0,51.46676939640479,0.1390260192448659,,3,,718,1,1.1,1.9,1,664439645a9a29be43d5bf5a,7134,0,1,78,66,2,fieldSmooth,7,349.861,151.062,257.720,219.910,218.296,NaN,3.166,230.519
,37,0.098716,Hue-5 with Wave-2,,1,0,51.46676939640479,0.0645446213720915,,3,,921,1,1.1,1.9,1,664439645a9a29be43d5bf5a,15609,0,3,78,67,1,fieldSmooth,7,368.232,134.280,238.369,209.257,154.390,NaN,3.027,158.223
,37,0.098716,Hue-5 with Wave-2,,1,0,51.46676939640479,0.0641652895425379,,3,,756,1,1.1,1.9,1,664439645a9a29be43d5bf5a,24783,0,6,78,68,2,fieldSmooth,7,368.232,134.280,238.369,209.257,154.390,NaN,3.027,158.223
,41,0.098716,Hue-5 with Wave-5,,1,0,51.46676939640479,0.0446754000009133,,3,,992,1,1.1,1.9,1,664439645a9a29be43d5bf5a,8557,0,5,78,75,1,fieldSmooth,7,731.661,165.811,294.160,207.249,373.064,NaN,3.996,259.438
,41,0.098716,Hue-5 with Wave-5,,1,0,51.46676939640479,0.0739134579109099,,3,,785,1,1.1,1.9,1,664439645a9a29be43d5bf5a,5469,0,3,78,76,2,fieldSmooth,7,731.661,165.811,294.160,207.249,373.064,NaN,3.996,259.438
,42,0.098716,Hue-7 with Wave-7,,1,0,24.67204480014682,0.0466570187947448,,3,,975,2,1.1,1.9,1,664439645a9a29be43d5bf5a,12072,1,1,78,77,1,fieldSmooth,7,1292.006,205.352,324.270,304.442,493.381,NaN,4.826,322.917
,42,0.098716,Hue-7 with Wave-7,,1,0,24.67204480014682,0.0847536169052196,,3,,755,1,1.1,1.9,1,664439645a9a29be43d5bf5a,8002,0,2,78,78,2,fieldSmooth,7,1292.006,205.352,324.270,304.442,493.381,NaN,4.826,322.917
,1,0.098716,Hue-3 with Wave-4,,1,0,12.639530661060668,0.0895964270571892,,3,,654,1,1.1,1.9,1,664babd04754ce9f840d34ed,9152,0,2,77,1,1,fieldSmooth,8,432.493,133.202,264.171,113.418,299.909,NaN,5.098,170.774
,1,0.098716,Hue-3 with Wave-4,,1,0,12.639530661060668,0.0705775408031766,,3,,630,1,1.1,1.9,1,664babd04754ce9f840d34ed,27324,0,2,77,2,2,fieldSmooth,8,432.493,133.202,264.171,113.418,299.909,NaN,5.098,170.774
,4,0.098716,Hue-5 with Wave-7,,1,0,54.1086153142376,0.0990129228946804,,3,,695,1,1.1,1.9,1,664babd04754ce9f840d34ed,3206,0,6,77,5,1,fieldSmooth,8,574.794,185.263,311.528,225.986,495.502,NaN,3.907,313.707
,4,0.098716,Hue-5 with Wave-7,,1,0,54.1086153142376,0.1007875498317139,,3,,549,1,1.1,1.9,1,664babd04754ce9f840d34ed,3471,0,3,77,6,2,fieldSmooth,8,574.794,185.263,311.528,225.986,495.502,NaN,3.907,313.707
,5,0.098716,Hue-5 with Wave-6,,1,0,54.1086153142376,0.0526747282612391,,3,,899,2,1.1,1.9,1,664babd04754ce9f840d34ed,2792,1,3,77,7,1,fieldSmooth,8,571.834,173.085,297.671,215.373,435.491,NaN,4.966,238.326
,5,0.098716,Hue-5 with Wave-6,,1,0,54.1086153142376,0.0847481232665688,,3,,559,2,1.1,1.9,1,664babd04754ce9f840d34ed,5680,1,1,77,8,2,fieldSmooth,8,571.834,173.085,297.671,215.373,435.491,NaN,4.966,238.326
,6,0.098716,Hue-3 with Wave-0,,1,0,12.639530661060668,0.081487886082686,,3,,682,1,1.1,1.9,1,664babd04754ce9f840d34ed,25563,0,5,77,9,1,fieldSmooth,8,80.366,47.794,63.919,95.568,15.720,NaN,0.829,45.205
,6,0.098716,Hue-3 with Wave-0,,0,0,12.639530661060668,0.0771355175884898,,3,,511,0,1.1,1.9,1,664babd04754ce9f840d34ed,11473,-1,3,77,10,2,fieldSmooth,8,80.366,47.794,63.919,95.568,15.720,NaN,0.829,45.205
,7,0.098716,Hue-3 with Wave-5,,1,0,12.639530661060668,0.0871136017407266,,3,,681,1,1.1,1.9,1,664babd04754ce9f840d34ed,10472,0,5,77,11,1,fieldSmooth,8,257.267,142.454,272.125,115.081,366.518,NaN,3.102,242.770
,7,0.098716,Hue-3 with Wave-5,,1,0,12.639530661060668,0.0501060255191625,,3,,548,2,1.1,1.9,1,664babd04754ce9f840d34ed,3282,1,2,77,12,2,fieldSmooth,8,257.267,142.454,272.125,115.081,366.518,NaN,3.102,242.770
,8,0.098716,Hue-7 with Wave-8,,1,0,38.457063684530354,0.0453551615445666,,3,,568,2,1.1,1.9,1,664babd04754ce9f840d34ed,3515,1,2,77,13,1,fieldSmooth,8,896.333,207.337,335.330,289.433,578.484,NaN,6.935,390.039
,8,0.098716,Hue-7 with Wave-8,,1,0,38.457063684530354,0.0731748972752663,,3,,560,1,1.1,1.9,1,664babd04754ce9f840d34ed,13366,0,2,77,14,2,fieldSmooth,8,896.333,207.337,335.330,289.433,578.484,NaN,6.935,390.039
,9,0.098716,Hue-5 with Wave-9,,1,0,54.1086153142376,0.078729525146907,,3,,655,2,1.1,1.9,1,664babd04754ce9f840d34ed,7490,1,5,77,15,1,fieldSmooth,8,787.933,191.873,327.480,219.657,633.276,NaN,3.731,409.873
,9,0.098716,Hue-5 with Wave-9,,1,0,54.1086153142376,0.0457375737635698,,3,,560,2,1.1,1.9,1,664babd04754ce9f840d34ed,7848,1,6,77,16,2,fieldSmooth,8,787.933,191.873,327.480,219.657,633.276,NaN,3.731,409.873
,10,0.098716,Hue-3 with Wave-2,,1,0,12.639530661060668,0.072168409346738,,3,,687,2,1.1,1.9,1,664babd04754ce9f840d34ed,8805,1,3,77,17,1,fieldSmooth,8,247.057,112.734,216.896,128.121,152.165,NaN,2.315,86.026
,10,0.098716,Hue-3 with Wave-2,,1,0,12.639530661060668,0.0657478171347642,,3,,532,2,1.1,1.9,1,664babd04754ce9f840d34ed,2634,1,2,77,18,2,fieldSmooth,8,247.057,112.734,216.896,128.121,152.165,NaN,2.315,86.026
,11,0.098716,Hue-3 with Wave-3,,1,0,12.639530661060668,0.0421850167777207,,3,,689,2,1.1,1.9,1,664babd04754ce9f840d34ed,17073,1,6,77,19,1,fieldSmooth,8,0.000,125.295,235.320,135.549,215.147,NaN,1.697,140.712
,11,0.098716,Hue-3 with Wave-3,,1,0,12.639530661060668,0.0969551208612819,,3,,478,2,1.1,1.9,1,664babd04754ce9f840d34ed,2209,1,1,77,20,2,fieldSmooth,8,0.000,125.295,235.320,135.549,215.147,NaN,1.697,140.712
,12,0.098716,Hue-7 with Wave-0,,1,0,38.457063684530354,0.0658538480803509,,3,,669,1,1.1,1.9,1,664babd04754ce9f840d34ed,15164,0,5,77,21,1,fieldSmooth,8,936.535,138.882,180.562,279.098,39.216,NaN,4.171,151.758
,12,0.098716,Hue-7 with Wave-0,,1,0,38.457063684530354,0.0557497714707612,,3,,557,1,1.1,1.9,1,664babd04754ce9f840d34ed,3925,0,3,77,22,2,fieldSmooth,8,936.535,138.882,180.562,279.098,39.216,NaN,4.171,151.758
,14,0.098716,Hue-7 with Wave-6,,1,0,38.457063684530354,0.058760663912306,,3,,672,2,1.1,1.9,1,664babd04754ce9f840d34ed,6313,1,4,77,25,1,fieldSmooth,8,1057.798,186.932,302.162,289.627,415.141,NaN,4.718,325.182
,14,0.098716,Hue-7 with Wave-6,,1,0,38.457063684530354,0.1264707758921466,,3,,491,1,1.1,1.9,1,664babd04754ce9f840d34ed,23242,0,1,77,26,2,fieldSmooth,8,1057.798,186.932,302.162,289.627,415.141,NaN,4.718,325.182
,17,0.098716,Hue-7 with Wave-5,,1,0,38.457063684530354,0.0677429270790055,,3,,715,2,1.1,1.9,1,664babd04754ce9f840d34ed,6649,1,1,77,29,1,fieldSmooth,8,908.148,189.604,303.718,297.715,357.512,NaN,5.144,323.167
,17,0.098716,Hue-7 with Wave-5,,1,0,38.457063684530354,0.0646320607109886,,3,,546,1,1.1,1.9,1,664babd04754ce9f840d34ed,11909,0,4,77,30,2,fieldSmooth,8,908.148,189.604,303.718,297.715,357.512,NaN,5.144,323.167
,18,0.098716,Hue-7 with Wave-4,,1,0,38.457063684530354,0.0514319442817109,,3,,686,1,1.1,1.9,1,664babd04754ce9f840d34ed,7433,0,2,77,31,1,fieldSmooth,8,825.238,179.354,290.892,290.748,305.965,NaN,5.003,197.764
,18,0.098716,Hue-7 with Wave-4,,1,0,38.457063684530354,0.0700205834275084,,3,,517,1,1.1,1.9,1,664babd04754ce9f840d34ed,3799,0,6,77,32,2,fieldSmooth,8,825.238,179.354,290.892,290.748,305.965,NaN,5.003,197.764
,20,0.098716,Hue-7 with Wave-3,,1,0,38.457063684530354,0.0476073575777425,,3,,678,2,1.1,1.9,1,664babd04754ce9f840d34ed,15741,1,5,77,35,1,fieldSmooth,8,804.595,161.991,264.396,281.248,216.743,NaN,4.530,141.605
,20,0.098716,Hue-7 with Wave-3,,1,0,38.457063684530354,0.1439608788033493,,3,,479,2,1.1,1.9,1,664babd04754ce9f840d34ed,4683,1,6,77,36,2,fieldSmooth,8,804.595,161.991,264.396,281.248,216.743,NaN,4.530,141.605
,21,0.098716,Hue-3 with Wave-7,,1,0,12.639530661060668,0.0825043540837589,,3,,669,2,1.1,1.9,1,664babd04754ce9f840d34ed,4975,1,3,77,37,1,fieldSmooth,8,78.544,156.627,286.821,125.814,487.999,NaN,3.369,334.961
,21,0.098716,Hue-3 with Wave-7,,1,0,12.639530661060668,0.0663049456532684,,3,,510,2,1.1,1.9,1,664babd04754ce9f840d34ed,7418,1,2,77,38,2,fieldSmooth,8,78.544,156.627,286.821,125.814,487.999,NaN,3.369,334.961
,22,0.098716,Hue-5 with Wave-4,,1,0,54.1086153142376,0.0750835413416087,,3,,670,1,1.1,1.9,1,664babd04754ce9f840d34ed,11726,0,4,77,39,1,fieldSmooth,8,656.685,158.033,277.493,202.050,303.288,NaN,5.585,231.934
,22,0.098716,Hue-5 with Wave-4,,1,0,54.1086153142376,0.1197871355187006,,3,,503,1,1.1,1.9,1,664babd04754ce9f840d34ed,6639,0,2,77,40,2,fieldSmooth,8,656.685,158.033,277.493,202.050,303.288,NaN,5.585,231.934
,23,0.098716,Hue-5 with Wave-5,,1,0,54.1086153142376,0.0514164527166796,,3,,604,1,1.1,1.9,1,664babd04754ce9f840d34ed,27302,0,2,77,41,1,fieldSmooth,8,798.767,165.418,293.235,205.856,371.204,NaN,4.386,253.080
,23,0.098716,Hue-5 with Wave-5,,1,0,54.1086153142376,0.075841882562673,,3,,519,2,1.1,1.9,1,664babd04754ce9f840d34ed,2821,1,3,77,42,2,fieldSmooth,8,798.767,165.418,293.235,205.856,371.204,NaN,4.386,253.080
,24,0.098716,Hue-5 with Wave-3,,1,0,54.1086153142376,0.1182676310516966,,3,,649,1,1.1,1.9,1,664babd04754ce9f840d34ed,4725,0,4,77,43,1,fieldSmooth,8,343.419,150.241,256.875,215.866,218.814,NaN,3.088,232.267
,24,0.098716,Hue-5 with Wave-3,,1,0,54.1086153142376,0.0628818653190716,,3,,516,2,1.1,1.9,1,664babd04754ce9f840d34ed,2547,1,5,77,44,2,fieldSmooth,8,343.419,150.241,256.875,215.866,218.814,NaN,3.088,232.267
,26,0.098716,Hue-7 with Wave-9,,1,0,38.457063684530354,0.0644322443751975,,3,,700,1,1.1,1.9,1,664babd04754ce9f840d34ed,4003,0,1,77,47,1,fieldSmooth,8,1362.178,209.793,336.679,294.788,651.813,NaN,5.386,395.180
,26,0.098716,Hue-7 with Wave-9,,1,0,38.457063684530354,0.0669146340335151,,3,,524,1,1.1,1.9,1,664babd04754ce9f840d34ed,9776,0,5,77,48,2,fieldSmooth,8,1362.178,209.793,336.679,294.788,651.813,NaN,5.386,395.180
