age,block,categorization,center,colormap,completionCode,converged,correct,correlation,currentOffsets,distance,education,engagementCorrect,expdistance,gender,generationTime,iterations,prolificId,requestedDistance,responseTime,selection,stimulus,stimulusCorrect,subjectid,trialNum,keep,ciede2000_discriminative_power,hue_discriminative_power,luminance_variation,lab_length,color_name_variation,chromatic_variation
25-34,1,945.056,0.03,Hue-7 with Wave-1,,True,0,0.07,20.428300276786985,0.1053291097189547,bachelor,6,0.1,male,125,2,5c50046b2b89f500015e5f6b,0.1,49714,3,1,67,1,,true,134.778,283.542,72.393,286.323,4.719,121.275
25-34,1,945.056,0.07,Hue-7 with Wave-1,,True,0,0.07,20.428300276786985,0.1929083321791633,bachelor,6,0.2,male,420,17,5c50046b2b89f500015e5f6b,0.2,5727,1,2,67,1,,true,134.778,283.542,72.393,286.323,4.719,121.275
25-34,1,945.056,0.165,Hue-7 with Wave-1,,True,1,0.07,20.428300276786985,0.3451169080872697,bachelor,6,0.35,male,189,6,5c50046b2b89f500015e5f6b,0.35,2239,4,3,67,1,,true,134.778,283.542,72.393,286.323,4.719,121.275
25-34,1,945.056,0.07,Hue-7 with Wave-1,,True,1,0.07,20.428300276786985,0.193285588011001,bachelor,6,0.2,male,190,6,5c50046b2b89f500015e5f6b,0.2,1540,2,4,67,1,,true,134.778,283.542,72.393,286.323,4.719,121.275
25-34,1,945.056,0.14,Hue-7 with Wave-1,,True,1,0.07,20.428300276786985,0.2939409471130692,bachelor,6,0.3,male,457,16,5c50046b2b89f500015e5f6b,0.3,1726,3,5,67,1,,true,134.778,283.542,72.393,286.323,4.719,121.275
25-34,1,945.056,0.1,Hue-7 with Wave-1,,True,1,0.07,20.428300276786985,0.2550975351631363,bachelor,6,0.25,male,521,23,5c50046b2b89f500015e5f6b,0.25,6752,4,6,67,1,,true,134.778,283.542,72.393,286.323,4.719,121.275
25-34,1,945.056,0.1,Hue-7 with Wave-1,,True,1,0.07,20.428300276786985,0.2405628350291425,bachelor,6,0.25,male,107,3,5c50046b2b89f500015e5f6b,0.25,3227,4,7,67,1,,true,134.778,283.542,72.393,286.323,4.719,121.275
25-34,1,945.056,0.14,Hue-7 with Wave-1,,True,1,0.07,20.428300276786985,0.2960935010803667,bachelor,6,0.3,male,212,7,5c50046b2b89f500015e5f6b,0.3,8100,1,8,67,1,,true,134.778,283.542,72.393,286.323,4.719,121.275
25-34,1,945.056,0.05,Hue-7 with Wave-1,,True,1,0.07,20.428300276786985,0.1404416764689922,bachelor,6,0.15,male,161,5,5c50046b2b89f500015e5f6b,0.15,2102,4,9,67,1,,true,134.778,283.542,72.393,286.323,4.719,121.275
25-34,1,945.056,0.05,Hue-7 with Wave-1,,True,1,0.07,20.428300276786985,0.1516747008972019,bachelor,6,0.15,male,84,1,5c50046b2b89f500015e5f6b,0.15,4006,3,10,67,1,,true,134.778,283.542,72.393,286.323,4.719,121.275
25-34,1,945.056,0.03,Hue-7 with Wave-1,,True,1,0.07,20.428300276786985,0.1069549018264374,bachelor,6,0.1,male,188,6,5c50046b2b89f500015e5f6b,0.1,11433,4,11,67,1,,true,134.778,283.542,72.393,286.323,4.719,121.275
25-34,1,945.056,0.165,Hue-7 with Wave-1,,True,1,0.07,20.428300276786985,0.3497006846336561,bachelor,6,0.35,male,178,6,5c50046b2b89f500015e5f6b,0.35,1799,4,12,67,1,,true,134.778,283.542,72.393,286.323,4.719,121.275
25-34,2,397.551,0.1,Hue-5 with Wave-6,,True,1,0.07,17.773862652939997,0.2505252829996884,bachelor,6,0.25,male,87,1,5c50046b2b89f500015e5f6b,0.25,5299,3,14,67,1,,true,170.079,224.730,434.842,362.857,3.452,226.395
25-34,2,397.551,0.165,Hue-5 with Wave-6,,True,1,0.07,17.773862652939997,0.3568658699683323,bachelor,6,0.35,male,147,4,5c50046b2b89f500015e5f6b,0.35,2221,3,15,67,1,,true,170.079,224.730,434.842,362.857,3.452,226.395
25-34,2,397.551,0.14,Hue-5 with Wave-6,,True,1,0.07,17.773862652939997,0.2938789743464741,bachelor,6,0.3,male,231,9,5c50046b2b89f500015e5f6b,0.3,1712,1,16,67,1,,true,170.079,224.730,434.842,362.857,3.452,226.395
25-34,2,397.551,0.03,Hue-5 with Wave-6,,True,1,0.07,17.773862652939997,0.0938636258178407,bachelor,6,0.1,male,78,1,5c50046b2b89f500015e5f6b,0.1,2306,1,17,67,1,,true,170.079,224.730,434.842,362.857,3.452,226.395
25-34,2,397.551,0.05,Hue-5 with Wave-6,,True,1,0.07,17.773862652939997,0.1426671744069715,bachelor,6,0.15,male,80,1,5c50046b2b89f500015e5f6b,0.15,3533,1,18,67,1,,true,170.079,224.730,434.842,362.857,3.452,226.395
25-34,2,397.551,0.05,Hue-5 with Wave-6,,True,0,0.07,17.773862652939997,0.1468817083566462,bachelor,6,0.15,male,104,2,5c50046b2b89f500015e5f6b,0.15,20489,1,19,67,1,,true,170.079,224.730,434.842,362.857,3.452,226.395
25-34,2,397.551,0.03,Hue-5 with Wave-6,,True,1,0.07,17.773862652939997,0.0906459528409546,bachelor,6,0.1,male,326,13,5c50046b2b89f500015e5f6b,0.1,3797,1,20,67,1,,true,170.079,224.730,434.842,362.857,3.452,226.395
25-34,2,397.551,0.07,Hue-5 with Wave-6,,True,1,0.07,17.773862652939997,0.2000137570506097,bachelor,6,0.2,male,89,3,5c50046b2b89f500015e5f6b,0.2,16285,2,21,67,1,,true,170.079,224.730,434.842,362.857,3.452,226.395
25-34,2,397.551,0.14,Hue-5 with Wave-6,,True,1,0.07,17.773862652939997,0.2905225512056009,bachelor,6,0.3,male,162,5,5c50046b2b89f500015e5f6b,0.3,3047,2,22,67,1,,true,170.079,224.730,434.842,362.857,3.452,226.395
25-34,2,397.551,0.07,Hue-5 with Wave-6,,True,1,0.07,17.773862652939997,0.2075461332344548,bachelor,6,0.2,male,201,7,5c50046b2b89f500015e5f6b,0.2,4664,4,23,67,1,,true,170.079,224.730,434.842,362.857,3.452,226.395
25-34,2,397.551,0.1,Hue-5 with Wave-6,,True,1,0.07,17.773862652939997,0.2554535431029699,bachelor,6,0.25,male,208,7,5c50046b2b89f500015e5f6b,0.25,2374,2,24,67,1,,true,170.079,224.730,434.842,362.857,3.452,226.395
25-34,3,616.244,0.1,Hue-5 with Wave-9,,True,1,0.07,17.773862652939997,0.2537301826225767,bachelor,6,0.25,male,238,9,5c50046b2b89f500015e5f6b,0.25,3376,1,26,67,1,,true,188.552,205.681,660.837,369.667,3.672,374.303
25-34,3,616.244,0.05,Hue-5 with Wave-9,,True,0,0.07,17.773862652939997,0.1507733410196672,bachelor,6,0.15,male,96,2,5c50046b2b89f500015e5f6b,0.15,6668,3,27,67,1,,true,188.552,205.681,660.837,369.667,3.672,374.303
25-34,3,616.244,0.1,Hue-5 with Wave-9,,True,1,0.07,17.773862652939997,0.2528614535227623,bachelor,6,0.25,male,230,8,5c50046b2b89f500015e5f6b,0.25,3698,1,28,67,1,,true,188.552,205.681,660.837,369.667,3.672,374.303
25-34,3,616.244,0.165,Hue-5 with Wave-9,,True,1,0.07,17.773862652939997,0.3447845601244605,bachelor,6,0.35,male,174,5,5c50046b2b89f500015e5f6b,0.35,7546,4,29,67,1,,true,188.552,205.681,660.837,369.667,3.672,374.303
25-34,3,616.244,0.03,Hue-5 with Wave-9,,True,1,0.07,17.773862652939997,0.1002790469958532,bachelor,6,0.1,male,87,1,5c50046b2b89f500015e5f6b,0.1,48995,1,30,67,1,,true,188.552,205.681,660.837,369.667,3.672,374.303
25-34,3,616.244,0.07,Hue-5 with Wave-9,,True,1,0.07,17.773862652939997,0.1905723091854132,bachelor,6,0.2,male,197,8,5c50046b2b89f500015e5f6b,0.2,2631,1,31,67,1,,true,188.552,205.681,660.837,369.667,3.672,374.303
25-34,3,616.244,0.14,Hue-5 with Wave-9,,True,1,0.07,17.773862652939997,0.2959320743234023,bachelor,6,0.3,male,144,4,5c50046b2b89f500015e5f6b,0.3,3329,1,32,67,1,,true,188.552,205.681,660.837,369.667,3.672,374.303
25-34,3,616.244,0.165,Hue-5 with Wave-9,,True,1,0.07,17.773862652939997,0.3454566200152305,bachelor,6,0.35,male,52,1,5c50046b2b89f500015e5f6b,0.35,4600,4,33,67,1,,true,188.552,205.681,660.837,369.667,3.672,374.303
25-34,3,616.244,0.14,Hue-5 with Wave-9,,True,1,0.07,17.773862652939997,0.2948644852509716,bachelor,6,0.3,male,91,3,5c50046b2b89f500015e5f6b,0.3,2378,4,34,67,1,,true,188.552,205.681,660.837,369.667,3.672,374.303
25-34,3,616.244,0.03,Hue-5 with Wave-9,,True,1,0.07,17.773862652939997,0.098526111382413,bachelor,6,0.1,male,57,1,5c50046b2b89f500015e5f6b,0.1,2814,2,35,67,1,,true,188.552,205.681,660.837,369.667,3.672,374.303
25-34,3,616.244,0.07,Hue-5 with Wave-9,,True,1,0.07,17.773862652939997,0.2082651071041328,bachelor,6,0.2,male,343,14,5c50046b2b89f500015e5f6b,0.2,5124,3,36,67,1,,true,188.552,205.681,660.837,369.667,3.672,374.303
25-34,4,779.875,0.165,Hue-7 with Wave-4,,True,1,0.07,20.428300276786985,0.3414787473480068,bachelor,6,0.35,male,105,2,5c50046b2b89f500015e5f6b,0.35,2011,2,38,67,1,,true,166.745,284.926,271.276,381.867,5.642,144.695
25-34,4,779.875,0.05,Hue-7 with Wave-4,,True,1,0.07,20.428300276786985,0.156405619131001,bachelor,6,0.15,male,126,5,5c50046b2b89f500015e5f6b,0.15,12215,4,39,67,1,,true,166.745,284.926,271.276,381.867,5.642,144.695
25-34,4,779.875,0.14,Hue-7 with Wave-4,,True,1,0.07,20.428300276786985,0.2993994303551785,bachelor,6,0.3,male,91,1,5c50046b2b89f500015e5f6b,0.3,1780,4,40,67,1,,true,166.745,284.926,271.276,381.867,5.642,144.695
25-34,4,779.875,0.03,Hue-7 with Wave-4,,True,1,0.07,20.428300276786985,0.0968659903273166,bachelor,6,0.1,male,88,1,5c50046b2b89f500015e5f6b,0.1,43290,1,41,67,1,,true,166.745,284.926,271.276,381.867,5.642,144.695
25-34,4,779.875,0.03,Hue-7 with Wave-4,,True,1,0.07,20.428300276786985,0.098324317814518,bachelor,6,0.1,male,149,4,5c50046b2b89f500015e5f6b,0.1,6466,1,42,67,1,,true,166.745,284.926,271.276,381.867,5.642,144.695
25-34,4,779.875,0.07,Hue-7 with Wave-4,,True,1,0.07,20.428300276786985,0.195710956539222,bachelor,6,0.2,male,138,4,5c50046b2b89f500015e5f6b,0.2,3347,2,43,67,1,,true,166.745,284.926,271.276,381.867,5.642,144.695
25-34,4,779.875,0.14,Hue-7 with Wave-4,,True,1,0.07,20.428300276786985,0.3026791353576764,bachelor,6,0.3,male,82,1,5c50046b2b89f500015e5f6b,0.3,2413,3,44,67,1,,true,166.745,284.926,271.276,381.867,5.642,144.695
25-34,4,779.875,0.1,Hue-7 with Wave-4,,True,1,0.07,20.428300276786985,0.2567087341283363,bachelor,6,0.25,male,166,7,5c50046b2b89f500015e5f6b,0.25,2448,1,45,67,1,,true,166.745,284.926,271.276,381.867,5.642,144.695
25-34,4,779.875,0.165,Hue-7 with Wave-4,,True,1,0.07,20.428300276786985,0.3418744132444929,bachelor,6,0.35,male,150,4,5c50046b2b89f500015e5f6b,0.35,1845,1,46,67,1,,true,166.745,284.926,271.276,381.867,5.642,144.695
25-34,4,779.875,0.07,Hue-7 with Wave-4,,True,1,0.07,20.428300276786985,0.1995785653886961,bachelor,6,0.2,male,158,5,5c50046b2b89f500015e5f6b,0.2,1783,3,47,67,1,,true,166.745,284.926,271.276,381.867,5.642,144.695
25-34,4,779.875,0.05,Hue-7 with Wave-4,,True,1,0.07,20.428300276786985,0.145090603557375,bachelor,6,0.15,male,51,1,5c50046b2b89f500015e5f6b,0.15,14232,2,48,67,1,,true,166.745,284.926,271.276,381.867,5.642,144.695
25-34,5,256.788,0.14,Hue-3 with Wave-9,,True,1,0.07,21.028784432401903,0.2913018646891721,bachelor,6,0.3,male,187,6,5c50046b2b89f500015e5f6b,0.3,2789,2,50,67,1,,true,146.917,139.296,504.139,292.438,2.393,365.695
25-34,5,256.788,0.05,Hue-3 with Wave-9,,True,1,0.07,21.028784432401903,0.144645545450414,bachelor,6,0.15,male,82,1,5c50046b2b89f500015e5f6b,0.15,3766,2,51,67,1,,true,146.917,139.296,504.139,292.438,2.393,365.695
25-34,5,256.788,0.03,Hue-3 with Wave-9,,True,1,0.07,21.028784432401903,0.0948571565790432,bachelor,6,0.1,male,58,1,5c50046b2b89f500015e5f6b,0.1,34041,3,52,67,1,,true,146.917,139.296,504.139,292.438,2.393,365.695
25-34,5,256.788,0.1,Hue-3 with Wave-9,,True,1,0.07,21.028784432401903,0.2406095405103333,bachelor,6,0.25,male,152,4,5c50046b2b89f500015e5f6b,0.25,4200,3,53,67,1,,true,146.917,139.296,504.139,292.438,2.393,365.695
25-34,5,256.788,0.14,Hue-3 with Wave-9,,True,1,0.07,21.028784432401903,0.2988519538597867,bachelor,6,0.3,male,61,1,5c50046b2b89f500015e5f6b,0.3,2502,3,54,67,1,,true,146.917,139.296,504.139,292.438,2.393,365.695
25-34,5,256.788,0.07,Hue-3 with Wave-9,,True,1,0.07,21.028784432401903,0.1954637932671827,bachelor,6,0.2,male,377,16,5c50046b2b89f500015e5f6b,0.2,5968,1,55,67,1,,true,146.917,139.296,504.139,292.438,2.393,365.695
25-34,5,256.788,0.07,Hue-3 with Wave-9,,True,0,0.07,21.028784432401903,0.2059439555651198,bachelor,6,0.2,male,76,2,5c50046b2b89f500015e5f6b,0.2,11640,1,56,67,1,,true,146.917,139.296,504.139,292.438,2.393,365.695
25-34,5,256.788,0.165,Hue-3 with Wave-9,,True,1,0.07,21.028784432401903,0.3435481767197682,bachelor,6,0.35,male,236,9,5c50046b2b89f500015e5f6b,0.35,4956,1,57,67,1,,true,146.917,139.296,504.139,292.438,2.393,365.695
25-34,5,256.788,0.03,Hue-3 with Wave-9,,True,1,0.07,21.028784432401903,0.0948562094846221,bachelor,6,0.1,male,161,4,5c50046b2b89f500015e5f6b,0.1,41582,4,58,67,1,,true,146.917,139.296,504.139,292.438,2.393,365.695
25-34,5,256.788,0.05,Hue-3 with Wave-9,,True,1,0.07,21.028784432401903,0.1417597338530243,bachelor,6,0.15,male,245,11,5c50046b2b89f500015e5f6b,0.15,2730,1,59,67,1,,true,146.917,139.296,504.139,292.438,2.393,365.695
25-34,5,256.788,0.165,Hue-3 with Wave-9,,True,1,0.07,21.028784432401903,0.3464231089825883,bachelor,6,0.35,male,106,2,5c50046b2b89f500015e5f6b,0.35,2411,2,60,67,1,,true,146.917,139.296,504.139,292.438,2.393,365.695
25-34,6,256.788,0.05,Hue-3 with Wave-9,,True,1,0.07,21.028784432401903,0.1547526917222397,bachelor,6,0.15,male,57,1,5c50046b2b89f500015e5f6b,0.15,3364,1,62,67,1,,true,146.917,139.296,504.139,292.438,2.393,365.695
25-34,6,256.788,0.07,Hue-3 with Wave-9,,True,1,0.07,21.028784432401903,0.2071497807680295,bachelor,6,0.2,male,147,4,5c50046b2b89f500015e5f6b,0.2,4699,2,63,67,1,,true,146.917,139.296,504.139,292.438,2.393,365.695
25-34,6,256.788,0.07,Hue-3 with Wave-9,,True,1,0.07,21.028784432401903,0.2080032887340186,bachelor,6,0.2,male,96,2,5c50046b2b89f500015e5f6b,0.2,3939,1,64,67,1,,true,146.917,139.296,504.139,292.438,2.393,365.695
25-34,6,256.788,0.1,Hue-3 with Wave-9,,True,1,0.07,21.028784432401903,0.2420217017989054,bachelor,6,0.25,male,652,30,5c50046b2b89f500015e5f6b,0.25,3063,1,65,67,1,,true,146.917,139.296,504.139,292.438,2.393,365.695
25-34,6,256.788,0.03,Hue-3 with Wave-9,,True,1,0.07,21.028784432401903,0.1015373751748637,bachelor,6,0.1,male,126,5,5c50046b2b89f500015e5f6b,0.1,20312,1,66,67,1,,true,146.917,139.296,504.139,292.438,2.393,365.695
25-34,6,256.788,0.05,Hue-3 with Wave-9,,True,1,0.07,21.028784432401903,0.159561218543799,bachelor,6,0.15,male,167,5,5c50046b2b89f500015e5f6b,0.15,8701,1,67,67,1,,true,146.917,139.296,504.139,292.438,2.393,365.695
25-34,6,256.788,0.165,Hue-3 with Wave-9,,True,1,0.07,21.028784432401903,0.3409122894212927,bachelor,6,0.35,male,216,8,5c50046b2b89f500015e5f6b,0.35,4781,3,68,67,1,,true,146.917,139.296,504.139,292.438,2.393,365.695
25-34,6,256.788,0.03,Hue-3 with Wave-9,,True,1,0.07,21.028784432401903,0.1066793574432866,bachelor,6,0.1,male,158,5,5c50046b2b89f500015e5f6b,0.1,7292,3,69,67,1,,true,146.917,139.296,504.139,292.438,2.393,365.695
25-34,6,256.788,0.14,Hue-3 with Wave-9,,True,1,0.07,21.028784432401903,0.2935528296189381,bachelor,6,0.3,male,110,2,5c50046b2b89f500015e5f6b,0.3,3932,1,70,67,1,,true,146.917,139.296,504.139,292.438,2.393,365.695
25-34,6,256.788,0.14,Hue-3 with Wave-9,,True,1,0.07,21.028784432401903,0.2988701967876868,bachelor,6,0.3,male,301,13,5c50046b2b89f500015e5f6b,0.3,4150,3,71,67,1,,true,146.917,139.296,504.139,292.438,2.393,365.695
25-34,6,256.788,0.165,Hue-3 with Wave-9,,True,1,0.07,21.028784432401903,0.3422560637881773,bachelor,6,0.35,male,249,13,5c50046b2b89f500015e5f6b,0.35,3360,1,72,67,1,,true,146.917,139.296,504.139,292.438,2.393,365.695
25-34,5,256.788,0.1,Hue-3 with Wave-9,,True,1,0.07,21.02878443,0.3964767529562985,bachelor,6,0.25,male,106,2,5c50046b2b89f500015e5f6b,0.25,3566,1,49,67,1,,true,146.917,139.296,504.139,292.438,2.393,365.695
25-34,5,256.788,0.1,Hue-3 with Wave-9,,True,1,0.07,21.02878443,0.3964767529562985,bachelor,6,0.25,male,106,2,5c50046b2b89f500015e5f6b,0.25,3566,1,49,67,1,,true,146.917,139.296,504.139,292.438,2.393,365.695
25-34,2,397.551,0.165,Hue-5 with Wave-6,,True,1,0.07,17.77386265,0.393246191498975,bachelor,6,0.35,male,217,8,5c50046b2b89f500015e5f6b,0.35,5671,3,13,67,1,,true,170.079,224.730,434.842,362.857,3.452,226.395
25-34,3,616.244,0.05,Hue-5 with Wave-9,,True,1,0.07,17.77386265,0.3936982844909696,bachelor,6,0.15,male,179,6,5c50046b2b89f500015e5f6b,0.15,5868,2,25,67,1,,true,188.552,205.681,660.837,369.667,3.672,374.303
25-34,4,779.875,0.1,Hue-7 with Wave-4,,True,1,0.07,20.42830028,0.3978493607491608,bachelor,6,0.25,male,133,5,5c50046b2b89f500015e5f6b,0.25,3983,1,37,67,1,,true,166.745,284.926,271.276,381.867,5.642,144.695
55-64,1,112.016,0.03,Hue-3 with Wave-0,,True,0,0.07,20.3169660107926,0.1094488048958771,bachelor,6,0.1,female,198,3,5c794023c44ec600161822b0,0.1,56420,2,1,65,2,,false,54.339,100.160,17.211,112.167,1.428,55.864
55-64,1,112.016,0.07,Hue-3 with Wave-0,,True,1,0.07,20.3169660107926,0.1952999202885514,bachelor,6,0.2,female,115,2,5c794023c44ec600161822b0,0.2,24108,4,2,65,2,,false,54.339,100.160,17.211,112.167,1.428,55.864
55-64,1,112.016,0.165,Hue-3 with Wave-0,,True,1,0.07,20.3169660107926,0.3596247888003707,bachelor,6,0.35,female,225,4,5c794023c44ec600161822b0,0.35,6810,2,3,65,2,,false,54.339,100.160,17.211,112.167,1.428,55.864
55-64,1,112.016,0.1,Hue-3 with Wave-0,,True,1,0.07,20.3169660107926,0.2437746315156256,bachelor,6,0.25,female,84,1,5c794023c44ec600161822b0,0.25,25819,3,4,65,2,,false,54.339,100.160,17.211,112.167,1.428,55.864
55-64,1,112.016,0.03,Hue-3 with Wave-0,,True,1,0.07,20.3169660107926,0.1005287624882276,bachelor,6,0.1,female,79,1,5c794023c44ec600161822b0,0.1,19811,1,5,65,2,,false,54.339,100.160,17.211,112.167,1.428,55.864
55-64,1,112.016,0.05,Hue-3 with Wave-0,,True,1,0.07,20.3169660107926,0.1414458384608065,bachelor,6,0.15,female,95,1,5c794023c44ec600161822b0,0.15,8329,3,6,65,2,,false,54.339,100.160,17.211,112.167,1.428,55.864
55-64,1,112.016,0.07,Hue-3 with Wave-0,,True,1,0.07,20.3169660107926,0.1936805378937052,bachelor,6,0.2,female,304,7,5c794023c44ec600161822b0,0.2,36553,1,7,65,2,,false,54.339,100.160,17.211,112.167,1.428,55.864
55-64,1,112.016,0.1,Hue-3 with Wave-0,,True,0,0.07,20.3169660107926,0.2576405493218061,bachelor,6,0.25,female,192,5,5c794023c44ec600161822b0,0.25,7642,1,8,65,2,,false,54.339,100.160,17.211,112.167,1.428,55.864
55-64,1,112.016,0.14,Hue-3 with Wave-0,,True,1,0.07,20.3169660107926,0.2945441145806791,bachelor,6,0.3,female,136,2,5c794023c44ec600161822b0,0.3,33033,3,9,65,2,,false,54.339,100.160,17.211,112.167,1.428,55.864
55-64,1,112.016,0.14,Hue-3 with Wave-0,,True,1,0.07,20.3169660107926,0.2938241057215436,bachelor,6,0.3,female,330,9,5c794023c44ec600161822b0,0.3,15470,2,10,65,2,,false,54.339,100.160,17.211,112.167,1.428,55.864
55-64,1,112.016,0.05,Hue-3 with Wave-0,,True,1,0.07,20.3169660107926,0.1585827803876411,bachelor,6,0.15,female,202,7,5c794023c44ec600161822b0,0.15,17157,3,11,65,2,,false,54.339,100.160,17.211,112.167,1.428,55.864
55-64,1,112.016,0.165,Hue-3 with Wave-0,,True,1,0.07,20.3169660107926,0.3491423343098189,bachelor,6,0.35,female,331,12,5c794023c44ec600161822b0,0.35,15108,3,12,65,2,,false,54.339,100.160,17.211,112.167,1.428,55.864
55-64,2,438.930,0.1,Hue-3 with Wave-6,,True,1,0.07,20.3169660107926,0.2533895142154136,bachelor,6,0.25,female,91,2,5c794023c44ec600161822b0,0.25,14145,1,14,65,2,,false,157.940,126.585,444.738,355.138,3.696,293.114
55-64,2,438.930,0.165,Hue-3 with Wave-6,,True,1,0.07,20.3169660107926,0.3530090337606579,bachelor,6,0.35,female,102,1,5c794023c44ec600161822b0,0.35,5051,2,15,65,2,,false,157.940,126.585,444.738,355.138,3.696,293.114
55-64,2,438.930,0.03,Hue-3 with Wave-6,,True,0,0.07,20.3169660107926,0.0954812919208079,bachelor,6,0.1,female,151,3,5c794023c44ec600161822b0,0.1,23191,4,16,65,2,,false,157.940,126.585,444.738,355.138,3.696,293.114
55-64,2,438.930,0.1,Hue-3 with Wave-6,,True,1,0.07,20.3169660107926,0.2482812201091891,bachelor,6,0.25,female,134,3,5c794023c44ec600161822b0,0.25,7508,1,17,65,2,,false,157.940,126.585,444.738,355.138,3.696,293.114
55-64,2,438.930,0.07,Hue-3 with Wave-6,,True,1,0.07,20.3169660107926,0.1936834647445326,bachelor,6,0.2,female,90,1,5c794023c44ec600161822b0,0.2,8443,2,18,65,2,,false,157.940,126.585,444.738,355.138,3.696,293.114
55-64,2,438.930,0.05,Hue-3 with Wave-6,,True,1,0.07,20.3169660107926,0.1404551592147222,bachelor,6,0.15,female,283,9,5c794023c44ec600161822b0,0.15,20867,4,19,65,2,,false,157.940,126.585,444.738,355.138,3.696,293.114
55-64,2,438.930,0.165,Hue-3 with Wave-6,,True,1,0.07,20.3169660107926,0.3452119961741888,bachelor,6,0.35,female,1036,37,5c794023c44ec600161822b0,0.35,7056,3,20,65,2,,false,157.940,126.585,444.738,355.138,3.696,293.114
55-64,2,438.930,0.14,Hue-3 with Wave-6,,True,1,0.07,20.3169660107926,0.3079132359743263,bachelor,6,0.3,female,1105,39,5c794023c44ec600161822b0,0.3,4630,1,21,65,2,,false,157.940,126.585,444.738,355.138,3.696,293.114
55-64,2,438.930,0.03,Hue-3 with Wave-6,,True,1,0.07,20.3169660107926,0.0970041063024847,bachelor,6,0.1,female,213,6,5c794023c44ec600161822b0,0.1,20239,3,22,65,2,,false,157.940,126.585,444.738,355.138,3.696,293.114
55-64,2,438.930,0.14,Hue-3 with Wave-6,,True,1,0.07,20.3169660107926,0.3025057247899176,bachelor,6,0.3,female,175,5,5c794023c44ec600161822b0,0.3,9020,2,23,65,2,,false,157.940,126.585,444.738,355.138,3.696,293.114
55-64,2,438.930,0.05,Hue-3 with Wave-6,,True,0,0.07,20.3169660107926,0.1444380656286587,bachelor,6,0.15,female,201,5,5c794023c44ec600161822b0,0.15,28380,4,24,65,2,,false,157.940,126.585,444.738,355.138,3.696,293.114
55-64,3,935.586,0.14,Hue-7 with Wave-0,,True,1,0.07,35.777629911166144,0.3069576367298509,bachelor,6,0.3,female,404,10,5c794023c44ec600161822b0,0.3,4387,3,26,65,2,,true,139.414,279.782,38.406,350.675,4.366,156.756
55-64,3,935.586,0.07,Hue-7 with Wave-0,,True,1,0.07,35.777629911166144,0.205579525397786,bachelor,6,0.2,female,647,18,5c794023c44ec600161822b0,0.2,6827,3,27,65,2,,true,139.414,279.782,38.406,350.675,4.366,156.756
55-64,3,935.586,0.05,Hue-7 with Wave-0,,True,1,0.07,35.777629911166144,0.1402851690173809,bachelor,6,0.15,female,262,5,5c794023c44ec600161822b0,0.15,7982,3,28,65,2,,true,139.414,279.782,38.406,350.675,4.366,156.756
55-64,3,935.586,0.14,Hue-7 with Wave-0,,True,1,0.07,35.777629911166144,0.2957549137198834,bachelor,6,0.3,female,187,4,5c794023c44ec600161822b0,0.3,4844,3,29,65,2,,true,139.414,279.782,38.406,350.675,4.366,156.756
55-64,3,935.586,0.165,Hue-7 with Wave-0,,True,1,0.07,35.777629911166144,0.3423973267327256,bachelor,6,0.35,female,321,8,5c794023c44ec600161822b0,0.35,3644,2,30,65,2,,true,139.414,279.782,38.406,350.675,4.366,156.756
55-64,3,935.586,0.1,Hue-7 with Wave-0,,True,1,0.07,35.777629911166144,0.2542788768615057,bachelor,6,0.25,female,444,14,5c794023c44ec600161822b0,0.25,2929,2,31,65,2,,true,139.414,279.782,38.406,350.675,4.366,156.756
55-64,3,935.586,0.05,Hue-7 with Wave-0,,True,1,0.07,35.777629911166144,0.155548183831724,bachelor,6,0.15,female,332,8,5c794023c44ec600161822b0,0.15,8867,2,32,65,2,,true,139.414,279.782,38.406,350.675,4.366,156.756
55-64,3,935.586,0.03,Hue-7 with Wave-0,,True,1,0.07,35.777629911166144,0.1075011614791138,bachelor,6,0.1,female,173,4,5c794023c44ec600161822b0,0.1,28132,1,33,65,2,,true,139.414,279.782,38.406,350.675,4.366,156.756
55-64,3,935.586,0.1,Hue-7 with Wave-0,,True,1,0.07,35.777629911166144,0.2467302382417378,bachelor,6,0.25,female,345,9,5c794023c44ec600161822b0,0.25,4521,1,34,65,2,,true,139.414,279.782,38.406,350.675,4.366,156.756
55-64,3,935.586,0.165,Hue-7 with Wave-0,,True,1,0.07,35.777629911166144,0.3542821318661912,bachelor,6,0.35,female,202,4,5c794023c44ec600161822b0,0.35,3826,3,35,65,2,,true,139.414,279.782,38.406,350.675,4.366,156.756
55-64,3,935.586,0.07,Hue-7 with Wave-0,,True,1,0.07,35.777629911166144,0.2065746029313991,bachelor,6,0.2,female,109,2,5c794023c44ec600161822b0,0.2,4001,1,36,65,2,,true,139.414,279.782,38.406,350.675,4.366,156.756
55-64,4,731.887,0.05,Hue-7 with Wave-1,,True,1,0.07,35.777629911166144,0.1432173568303321,bachelor,6,0.15,female,124,2,5c794023c44ec600161822b0,0.15,29477,2,38,65,2,,true,135.043,278.443,75.558,288.374,4.035,150.470
55-64,4,731.887,0.07,Hue-7 with Wave-1,,True,1,0.07,35.777629911166144,0.197612088739072,bachelor,6,0.2,female,324,8,5c794023c44ec600161822b0,0.2,9646,1,39,65,2,,true,135.043,278.443,75.558,288.374,4.035,150.470
55-64,4,731.887,0.03,Hue-7 with Wave-1,,True,0,0.07,35.777629911166144,0.0999308342012062,bachelor,6,0.1,female,188,4,5c794023c44ec600161822b0,0.1,12470,2,40,65,2,,true,135.043,278.443,75.558,288.374,4.035,150.470
55-64,4,731.887,0.1,Hue-7 with Wave-1,,True,1,0.07,35.777629911166144,0.2567724677364242,bachelor,6,0.25,female,296,9,5c794023c44ec600161822b0,0.25,3569,4,41,65,2,,true,135.043,278.443,75.558,288.374,4.035,150.470
55-64,4,731.887,0.14,Hue-7 with Wave-1,,True,1,0.07,35.777629911166144,0.299397415125757,bachelor,6,0.3,female,231,7,5c794023c44ec600161822b0,0.3,7512,2,42,65,2,,true,135.043,278.443,75.558,288.374,4.035,150.470
55-64,4,731.887,0.14,Hue-7 with Wave-1,,True,1,0.07,35.777629911166144,0.305772742590782,bachelor,6,0.3,female,853,25,5c794023c44ec600161822b0,0.3,5432,2,43,65,2,,true,135.043,278.443,75.558,288.374,4.035,150.470
55-64,4,731.887,0.165,Hue-7 with Wave-1,,True,1,0.07,35.777629911166144,0.356673029558848,bachelor,6,0.35,female,228,6,5c794023c44ec600161822b0,0.35,3079,4,44,65,2,,true,135.043,278.443,75.558,288.374,4.035,150.470
55-64,4,731.887,0.05,Hue-7 with Wave-1,,True,1,0.07,35.777629911166144,0.1494977744957359,bachelor,6,0.15,female,179,3,5c794023c44ec600161822b0,0.15,10870,2,45,65,2,,true,135.043,278.443,75.558,288.374,4.035,150.470
55-64,4,731.887,0.07,Hue-7 with Wave-1,,True,1,0.07,35.777629911166144,0.2037312435811388,bachelor,6,0.2,female,148,5,5c794023c44ec600161822b0,0.2,35211,2,46,65,2,,true,135.043,278.443,75.558,288.374,4.035,150.470
55-64,4,731.887,0.165,Hue-7 with Wave-1,,True,1,0.07,35.777629911166144,0.3418204360871833,bachelor,6,0.35,female,341,10,5c794023c44ec600161822b0,0.35,5355,2,47,65,2,,true,135.043,278.443,75.558,288.374,4.035,150.470
55-64,4,731.887,0.1,Hue-7 with Wave-1,,True,1,0.07,35.777629911166144,0.2402882998736422,bachelor,6,0.25,female,82,1,5c794023c44ec600161822b0,0.25,5006,1,48,65,2,,true,135.043,278.443,75.558,288.374,4.035,150.470
55-64,5,346.471,0.14,Hue-5 with Wave-3,,True,1,0.07,59.57774964865331,0.2978998160346002,bachelor,6,0.3,female,248,6,5c794023c44ec600161822b0,0.3,3675,1,50,65,2,,true,148.860,206.353,219.119,327.503,3.062,239.037
55-64,5,346.471,0.05,Hue-5 with Wave-3,,True,1,0.07,59.57774964865331,0.1466642269766493,bachelor,6,0.15,female,96,1,5c794023c44ec600161822b0,0.15,8105,4,51,65,2,,true,148.860,206.353,219.119,327.503,3.062,239.037
55-64,5,346.471,0.14,Hue-5 with Wave-3,,True,1,0.07,59.57774964865331,0.2944320624954133,bachelor,6,0.3,female,591,19,5c794023c44ec600161822b0,0.3,3073,3,52,65,2,,true,148.860,206.353,219.119,327.503,3.062,239.037
55-64,5,346.471,0.165,Hue-5 with Wave-3,,True,1,0.07,59.57774964865331,0.3540437040261128,bachelor,6,0.35,female,488,12,5c794023c44ec600161822b0,0.35,3189,2,53,65,2,,true,148.860,206.353,219.119,327.503,3.062,239.037
55-64,5,346.471,0.1,Hue-5 with Wave-3,,True,1,0.07,59.57774964865331,0.2506349871132395,bachelor,6,0.25,female,1349,41,5c794023c44ec600161822b0,0.25,3973,4,54,65,2,,true,148.860,206.353,219.119,327.503,3.062,239.037
55-64,5,346.471,0.05,Hue-5 with Wave-3,,True,1,0.07,59.57774964865331,0.1509495183091074,bachelor,6,0.15,female,87,1,5c794023c44ec600161822b0,0.15,40119,1,55,65,2,,true,148.860,206.353,219.119,327.503,3.062,239.037
55-64,5,346.471,0.165,Hue-5 with Wave-3,,True,1,0.07,59.57774964865331,0.3508446042211045,bachelor,6,0.35,female,260,7,5c794023c44ec600161822b0,0.35,4489,3,56,65,2,,true,148.860,206.353,219.119,327.503,3.062,239.037
55-64,5,346.471,0.1,Hue-5 with Wave-3,,True,1,0.07,59.57774964865331,0.2472593658968561,bachelor,6,0.25,female,193,4,5c794023c44ec600161822b0,0.25,8032,2,57,65,2,,true,148.860,206.353,219.119,327.503,3.062,239.037
55-64,5,346.471,0.07,Hue-5 with Wave-3,,True,1,0.07,59.57774964865331,0.200488439347031,bachelor,6,0.2,female,376,10,5c794023c44ec600161822b0,0.2,4222,1,58,65,2,,true,148.860,206.353,219.119,327.503,3.062,239.037
55-64,5,346.471,0.03,Hue-5 with Wave-3,,True,1,0.07,59.57774964865331,0.0980144335879869,bachelor,6,0.1,female,126,3,5c794023c44ec600161822b0,0.1,4188,4,59,65,2,,true,148.860,206.353,219.119,327.503,3.062,239.037
55-64,5,346.471,0.07,Hue-5 with Wave-3,,True,1,0.07,59.57774964865331,0.1996934598780322,bachelor,6,0.2,female,116,2,5c794023c44ec600161822b0,0.2,4814,2,60,65,2,,true,148.860,206.353,219.119,327.503,3.062,239.037
55-64,6,666.378,0.07,Hue-5 with Wave-6,,True,0,0.07,59.57774964865331,0.1944894303249487,bachelor,6,0.2,female,136,2,5c794023c44ec600161822b0,0.2,25821,2,62,65,2,,true,173.337,217.770,428.130,408.036,5.115,235.808
55-64,6,666.378,0.1,Hue-5 with Wave-6,,True,1,0.07,59.57774964865331,0.2492475429333909,bachelor,6,0.25,female,197,5,5c794023c44ec600161822b0,0.25,6160,3,63,65,2,,true,173.337,217.770,428.130,408.036,5.115,235.808
55-64,6,666.378,0.1,Hue-5 with Wave-6,,True,1,0.07,59.57774964865331,0.2461125945734474,bachelor,6,0.25,female,98,1,5c794023c44ec600161822b0,0.25,5468,3,64,65,2,,true,173.337,217.770,428.130,408.036,5.115,235.808
55-64,6,666.378,0.165,Hue-5 with Wave-6,,True,1,0.07,59.57774964865331,0.3437550441759143,bachelor,6,0.35,female,362,10,5c794023c44ec600161822b0,0.35,4046,4,65,65,2,,true,173.337,217.770,428.130,408.036,5.115,235.808
55-64,6,666.378,0.14,Hue-5 with Wave-6,,True,1,0.07,59.57774964865331,0.3078901497834744,bachelor,6,0.3,female,401,11,5c794023c44ec600161822b0,0.3,4421,1,66,65,2,,true,173.337,217.770,428.130,408.036,5.115,235.808
55-64,6,666.378,0.14,Hue-5 with Wave-6,,True,1,0.07,59.57774964865331,0.3054237199642008,bachelor,6,0.3,female,301,7,5c794023c44ec600161822b0,0.3,3669,1,67,65,2,,true,173.337,217.770,428.130,408.036,5.115,235.808
55-64,6,666.378,0.07,Hue-5 with Wave-6,,True,1,0.07,59.57774964865331,0.1903253401775402,bachelor,6,0.2,female,145,3,5c794023c44ec600161822b0,0.2,5015,4,68,65,2,,true,173.337,217.770,428.130,408.036,5.115,235.808
55-64,6,666.378,0.03,Hue-5 with Wave-6,,True,1,0.07,59.57774964865331,0.0915955553542253,bachelor,6,0.1,female,124,3,5c794023c44ec600161822b0,0.1,9274,1,69,65,2,,true,173.337,217.770,428.130,408.036,5.115,235.808
55-64,6,666.378,0.05,Hue-5 with Wave-6,,True,1,0.07,59.57774964865331,0.1595519261491457,bachelor,6,0.15,female,172,5,5c794023c44ec600161822b0,0.15,3544,3,70,65,2,,true,173.337,217.770,428.130,408.036,5.115,235.808
55-64,6,666.378,0.03,Hue-5 with Wave-6,,True,1,0.07,59.57774964865331,0.1053989777621304,bachelor,6,0.1,female,103,1,5c794023c44ec600161822b0,0.1,3085,3,71,65,2,,true,173.337,217.770,428.130,408.036,5.115,235.808
55-64,6,666.378,0.05,Hue-5 with Wave-6,,True,0,0.07,59.57774964865331,0.1437487381633972,bachelor,6,0.15,female,95,1,5c794023c44ec600161822b0,0.15,7047,3,72,65,2,,true,173.337,217.770,428.130,408.036,5.115,235.808
55-64,2,438.930,0.07,Hue-3 with Wave-6,,True,1,0.07,20.31696601,0.4069821137839519,bachelor,6,0.2,female,225,7,5c794023c44ec600161822b0,0.2,19944,2,13,65,2,,false,157.940,126.585,444.738,355.138,3.696,293.114
55-64,5,346.471,0.03,Hue-5 with Wave-3,,True,1,0.07,59.57774965,0.3907652580605036,bachelor,6,0.1,female,329,8,5c794023c44ec600161822b0,0.1,13491,4,49,65,2,,true,148.860,206.353,219.119,327.503,3.062,239.037
55-64,6,666.378,0.165,Hue-5 with Wave-6,,True,1,0.07,59.57774965,0.3940954213424482,bachelor,6,0.35,female,155,2,5c794023c44ec600161822b0,0.35,8945,1,61,65,2,,true,173.337,217.770,428.130,408.036,5.115,235.808
55-64,3,935.586,0.03,Hue-7 with Wave-0,,True,1,0.07,35.77762991,0.4000422700658186,bachelor,6,0.1,female,303,6,5c794023c44ec600161822b0,0.1,11447,3,25,65,2,,true,139.414,279.782,38.406,350.675,4.366,156.756
55-64,4,731.887,0.03,Hue-7 with Wave-1,,True,1,0.07,35.77762991,0.3953267354017852,bachelor,6,0.1,female,203,5,5c794023c44ec600161822b0,0.1,10959,2,37,65,2,,true,135.043,278.443,75.558,288.374,4.035,150.470
45-54,1,586.881,0.03,Hue-5 with Wave-5,,True,0,0.07,6.811468106593916,0.0990385457918657,high_school,6,0.1,male,74,4,5da88a6037d42100144928bd,0.1,30541,1,1,65,3,,true,168.773,223.807,374.634,365.119,3.593,179.353
45-54,1,586.881,0.07,Hue-5 with Wave-5,,True,1,0.07,6.811468106593916,0.2092549982858826,high_school,6,0.2,male,80,2,5da88a6037d42100144928bd,0.2,10941,1,2,65,3,,true,168.773,223.807,374.634,365.119,3.593,179.353
45-54,1,586.881,0.03,Hue-5 with Wave-5,,True,1,0.07,6.811468106593916,0.0940533714523648,high_school,6,0.1,male,71,2,5da88a6037d42100144928bd,0.1,8646,3,3,65,3,,true,168.773,223.807,374.634,365.119,3.593,179.353
45-54,1,586.881,0.1,Hue-5 with Wave-5,,True,1,0.07,6.811468106593916,0.2526563451056434,high_school,6,0.25,male,92,5,5da88a6037d42100144928bd,0.25,15507,4,4,65,3,,true,168.773,223.807,374.634,365.119,3.593,179.353
45-54,1,586.881,0.07,Hue-5 with Wave-5,,True,1,0.07,6.811468106593916,0.1925194980757908,high_school,6,0.2,male,85,3,5da88a6037d42100144928bd,0.2,12498,3,5,65,3,,true,168.773,223.807,374.634,365.119,3.593,179.353
45-54,1,586.881,0.14,Hue-5 with Wave-5,,True,1,0.07,6.811468106593916,0.2900751083322591,high_school,6,0.3,male,80,7,5da88a6037d42100144928bd,0.3,12035,3,6,65,3,,true,168.773,223.807,374.634,365.119,3.593,179.353
45-54,1,586.881,0.165,Hue-5 with Wave-5,,True,1,0.07,6.811468106593916,0.3430667135167591,high_school,6,0.35,male,172,16,5da88a6037d42100144928bd,0.35,18610,1,7,65,3,,true,168.773,223.807,374.634,365.119,3.593,179.353
45-54,1,586.881,0.14,Hue-5 with Wave-5,,True,1,0.07,6.811468106593916,0.2935275079128878,high_school,6,0.3,male,172,14,5da88a6037d42100144928bd,0.3,4396,3,8,65,3,,true,168.773,223.807,374.634,365.119,3.593,179.353
45-54,1,586.881,0.05,Hue-5 with Wave-5,,True,1,0.07,6.811468106593916,0.1507683677493737,high_school,6,0.15,male,58,1,5da88a6037d42100144928bd,0.15,5474,1,9,65,3,,true,168.773,223.807,374.634,365.119,3.593,179.353
45-54,1,586.881,0.05,Hue-5 with Wave-5,,True,1,0.07,6.811468106593916,0.1502168431606728,high_school,6,0.15,male,65,2,5da88a6037d42100144928bd,0.15,10516,1,10,65,3,,true,168.773,223.807,374.634,365.119,3.593,179.353
45-54,1,586.881,0.165,Hue-5 with Wave-5,,True,1,0.07,6.811468106593916,0.3418836845697283,high_school,6,0.35,male,230,23,5da88a6037d42100144928bd,0.35,4623,2,11,65,3,,true,168.773,223.807,374.634,365.119,3.593,179.353
45-54,1,586.881,0.1,Hue-5 with Wave-5,,True,1,0.07,6.811468106593916,0.2577115232271954,high_school,6,0.25,male,55,1,5da88a6037d42100144928bd,0.25,9220,2,12,65,3,,true,168.773,223.807,374.634,365.119,3.593,179.353
45-54,2,372.230,0.165,Hue-3 with Wave-6,,True,1,0.07,32.081024138343125,0.3551138220352222,high_school,6,0.35,male,324,37,5da88a6037d42100144928bd,0.35,5285,1,14,65,3,,false,155.895,134.736,415.840,362.432,3.139,304.756
45-54,2,372.230,0.03,Hue-3 with Wave-6,,True,0,0.07,32.081024138343125,0.1082939708010639,high_school,6,0.1,male,63,1,5da88a6037d42100144928bd,0.1,15520,3,15,65,3,,false,155.895,134.736,415.840,362.432,3.139,304.756
45-54,2,372.230,0.1,Hue-3 with Wave-6,,True,1,0.07,32.081024138343125,0.2438119505387707,high_school,6,0.25,male,148,11,5da88a6037d42100144928bd,0.25,5741,2,16,65,3,,false,155.895,134.736,415.840,362.432,3.139,304.756
45-54,2,372.230,0.03,Hue-3 with Wave-6,,True,1,0.07,32.081024138343125,0.1057325187985602,high_school,6,0.1,male,65,2,5da88a6037d42100144928bd,0.1,8900,1,17,65,3,,false,155.895,134.736,415.840,362.432,3.139,304.756
45-54,2,372.230,0.05,Hue-3 with Wave-6,,True,1,0.07,32.081024138343125,0.1446524121475031,high_school,6,0.15,male,92,5,5da88a6037d42100144928bd,0.15,14950,2,18,65,3,,false,155.895,134.736,415.840,362.432,3.139,304.756
45-54,2,372.230,0.1,Hue-3 with Wave-6,,True,1,0.07,32.081024138343125,0.2599534312515263,high_school,6,0.25,male,59,1,5da88a6037d42100144928bd,0.25,7722,1,19,65,3,,false,155.895,134.736,415.840,362.432,3.139,304.756
45-54,2,372.230,0.165,Hue-3 with Wave-6,,True,1,0.07,32.081024138343125,0.3550063449773851,high_school,6,0.35,male,64,2,5da88a6037d42100144928bd,0.35,6218,3,20,65,3,,false,155.895,134.736,415.840,362.432,3.139,304.756
45-54,2,372.230,0.07,Hue-3 with Wave-6,,True,1,0.07,32.081024138343125,0.192770966078441,high_school,6,0.2,male,91,7,5da88a6037d42100144928bd,0.2,8386,4,21,65,3,,false,155.895,134.736,415.840,362.432,3.139,304.756
45-54,2,372.230,0.14,Hue-3 with Wave-6,,True,1,0.07,32.081024138343125,0.3023249346448567,high_school,6,0.3,male,62,1,5da88a6037d42100144928bd,0.3,9372,4,22,65,3,,false,155.895,134.736,415.840,362.432,3.139,304.756
45-54,2,372.230,0.14,Hue-3 with Wave-6,,True,1,0.07,32.081024138343125,0.3051136638494515,high_school,6,0.3,male,96,5,5da88a6037d42100144928bd,0.3,6030,4,23,65,3,,false,155.895,134.736,415.840,362.432,3.139,304.756
45-54,2,372.230,0.05,Hue-3 with Wave-6,,True,0,0.07,32.081024138343125,0.144008465171958,high_school,6,0.15,male,77,3,5da88a6037d42100144928bd,0.15,10918,2,24,65,3,,false,155.895,134.736,415.840,362.432,3.139,304.756
45-54,3,536.540,0.07,Hue-5 with Wave-9,,True,0,0.07,6.811468106593916,0.1946592807060082,high_school,6,0.2,male,82,3,5da88a6037d42100144928bd,0.2,8809,2,26,65,3,,true,189.601,211.384,658.122,395.151,3.142,340.417
45-54,3,536.540,0.165,Hue-5 with Wave-9,,True,1,0.07,6.811468106593916,0.3435532872423634,high_school,6,0.35,male,161,13,5da88a6037d42100144928bd,0.35,14253,3,27,65,3,,true,189.601,211.384,658.122,395.151,3.142,340.417
45-54,3,536.540,0.05,Hue-5 with Wave-9,,True,1,0.07,6.811468106593916,0.1487832921681172,high_school,6,0.15,male,76,4,5da88a6037d42100144928bd,0.15,7384,1,28,65,3,,true,189.601,211.384,658.122,395.151,3.142,340.417
45-54,3,536.540,0.14,Hue-5 with Wave-9,,True,1,0.07,6.811468106593916,0.2939703423248917,high_school,6,0.3,male,69,2,5da88a6037d42100144928bd,0.3,7063,1,29,65,3,,true,189.601,211.384,658.122,395.151,3.142,340.417
45-54,3,536.540,0.05,Hue-5 with Wave-9,,True,0,0.07,6.811468106593916,0.1543715035690152,high_school,6,0.15,male,119,9,5da88a6037d42100144928bd,0.15,13001,2,30,65,3,,true,189.601,211.384,658.122,395.151,3.142,340.417
45-54,3,536.540,0.14,Hue-5 with Wave-9,,True,1,0.07,6.811468106593916,0.2973396201568531,high_school,6,0.3,male,119,10,5da88a6037d42100144928bd,0.3,4645,2,31,65,3,,true,189.601,211.384,658.122,395.151,3.142,340.417
45-54,3,536.540,0.1,Hue-5 with Wave-9,,True,1,0.07,6.811468106593916,0.2405102309936544,high_school,6,0.25,male,65,2,5da88a6037d42100144928bd,0.25,7470,1,32,65,3,,true,189.601,211.384,658.122,395.151,3.142,340.417
45-54,3,536.540,0.03,Hue-5 with Wave-9,,True,1,0.07,6.811468106593916,0.1082518990846569,high_school,6,0.1,male,88,6,5da88a6037d42100144928bd,0.1,8230,4,33,65,3,,true,189.601,211.384,658.122,395.151,3.142,340.417
45-54,3,536.540,0.07,Hue-5 with Wave-9,,True,1,0.07,6.811468106593916,0.2010299376132114,high_school,6,0.2,male,100,8,5da88a6037d42100144928bd,0.2,7590,3,34,65,3,,true,189.601,211.384,658.122,395.151,3.142,340.417
45-54,3,536.540,0.165,Hue-5 with Wave-9,,True,1,0.07,6.811468106593916,0.3444741270411548,high_school,6,0.35,male,239,26,5da88a6037d42100144928bd,0.35,5623,4,35,65,3,,true,189.601,211.384,658.122,395.151,3.142,340.417
45-54,3,536.540,0.1,Hue-5 with Wave-9,,True,1,0.07,6.811468106593916,0.2537403007271408,high_school,6,0.25,male,54,1,5da88a6037d42100144928bd,0.25,7301,3,36,65,3,,true,189.601,211.384,658.122,395.151,3.142,340.417
45-54,4,372.230,0.03,Hue-3 with Wave-6,,True,1,0.07,32.081024138343125,0.0941649366656429,high_school,6,0.1,male,77,3,5da88a6037d42100144928bd,0.1,17132,2,38,65,3,,false,155.895,134.736,415.840,362.432,3.139,304.756
45-54,4,372.230,0.14,Hue-3 with Wave-6,,True,1,0.07,32.081024138343125,0.2912491969778252,high_school,6,0.3,male,92,4,5da88a6037d42100144928bd,0.3,7135,3,39,65,3,,false,155.895,134.736,415.840,362.432,3.139,304.756
45-54,4,372.230,0.1,Hue-3 with Wave-6,,True,1,0.07,32.081024138343125,0.243850816221484,high_school,6,0.25,male,55,1,5da88a6037d42100144928bd,0.25,6492,3,40,65,3,,false,155.895,134.736,415.840,362.432,3.139,304.756
45-54,4,372.230,0.165,Hue-3 with Wave-6,,True,1,0.07,32.081024138343125,0.3417428469124473,high_school,6,0.35,male,72,2,5da88a6037d42100144928bd,0.35,6257,2,41,65,3,,false,155.895,134.736,415.840,362.432,3.139,304.756
45-54,4,372.230,0.165,Hue-3 with Wave-6,,True,1,0.07,32.081024138343125,0.3497318664379801,high_school,6,0.35,male,125,9,5da88a6037d42100144928bd,0.35,4239,4,42,65,3,,false,155.895,134.736,415.840,362.432,3.139,304.756
45-54,4,372.230,0.07,Hue-3 with Wave-6,,True,1,0.07,32.081024138343125,0.2066954727700885,high_school,6,0.2,male,92,5,5da88a6037d42100144928bd,0.2,6501,3,43,65,3,,false,155.895,134.736,415.840,362.432,3.139,304.756
45-54,4,372.230,0.03,Hue-3 with Wave-6,,True,1,0.07,32.081024138343125,0.0933200305170596,high_school,6,0.1,male,73,2,5da88a6037d42100144928bd,0.1,9574,1,44,65,3,,false,155.895,134.736,415.840,362.432,3.139,304.756
45-54,4,372.230,0.07,Hue-3 with Wave-6,,True,1,0.07,32.081024138343125,0.1966165189398995,high_school,6,0.2,male,136,10,5da88a6037d42100144928bd,0.2,6116,1,45,65,3,,false,155.895,134.736,415.840,362.432,3.139,304.756
45-54,4,372.230,0.05,Hue-3 with Wave-6,,True,1,0.07,32.081024138343125,0.1400792115331597,high_school,6,0.15,male,104,6,5da88a6037d42100144928bd,0.15,6062,4,46,65,3,,false,155.895,134.736,415.840,362.432,3.139,304.756
45-54,4,372.230,0.14,Hue-3 with Wave-6,,True,1,0.07,32.081024138343125,0.3097175301063535,high_school,6,0.3,male,88,4,5da88a6037d42100144928bd,0.3,5582,2,47,65,3,,false,155.895,134.736,415.840,362.432,3.139,304.756
45-54,4,372.230,0.05,Hue-3 with Wave-6,,True,1,0.07,32.081024138343125,0.1518273722952296,high_school,6,0.15,male,74,3,5da88a6037d42100144928bd,0.15,6785,3,48,65,3,,false,155.895,134.736,415.840,362.432,3.139,304.756
45-54,5,854.922,0.165,Hue-7 with Wave-5,,True,1,0.07,3.8909157970068255,0.3458996422382892,high_school,6,0.35,male,86,7,5da88a6037d42100144928bd,0.35,5559,2,50,65,3,,true,193.104,295.253,362.794,417.191,4.836,194.532
45-54,5,854.922,0.1,Hue-7 with Wave-5,,True,1,0.07,3.8909157970068255,0.2554861598230296,high_school,6,0.25,male,55,1,5da88a6037d42100144928bd,0.25,6596,2,51,65,3,,true,193.104,295.253,362.794,417.191,4.836,194.532
45-54,5,854.922,0.1,Hue-7 with Wave-5,,True,1,0.07,3.8909157970068255,0.2512419878096155,high_school,6,0.25,male,156,13,5da88a6037d42100144928bd,0.25,5218,4,52,65,3,,true,193.104,295.253,362.794,417.191,4.836,194.532
45-54,5,854.922,0.07,Hue-7 with Wave-5,,True,1,0.07,3.8909157970068255,0.1964876218350277,high_school,6,0.2,male,68,3,5da88a6037d42100144928bd,0.2,7846,2,53,65,3,,true,193.104,295.253,362.794,417.191,4.836,194.532
45-54,5,854.922,0.03,Hue-7 with Wave-5,,True,0,0.07,3.8909157970068255,0.0910343609922753,high_school,6,0.1,male,65,2,5da88a6037d42100144928bd,0.1,14831,1,54,65,3,,true,193.104,295.253,362.794,417.191,4.836,194.532
45-54,5,854.922,0.165,Hue-7 with Wave-5,,True,1,0.07,3.8909157970068255,0.3567056133366612,high_school,6,0.35,male,143,11,5da88a6037d42100144928bd,0.35,5071,2,55,65,3,,true,193.104,295.253,362.794,417.191,4.836,194.532
45-54,5,854.922,0.03,Hue-7 with Wave-5,,True,1,0.07,3.8909157970068255,0.1022147374577212,high_school,6,0.1,male,130,9,5da88a6037d42100144928bd,0.1,5765,1,56,65,3,,true,193.104,295.253,362.794,417.191,4.836,194.532
45-54,5,854.922,0.05,Hue-7 with Wave-5,,True,1,0.07,3.8909157970068255,0.1430919423146995,high_school,6,0.15,male,108,7,5da88a6037d42100144928bd,0.15,9492,4,57,65,3,,true,193.104,295.253,362.794,417.191,4.836,194.532
45-54,5,854.922,0.05,Hue-7 with Wave-5,,True,1,0.07,3.8909157970068255,0.1426782465642854,high_school,6,0.15,male,55,1,5da88a6037d42100144928bd,0.15,6837,2,58,65,3,,true,193.104,295.253,362.794,417.191,4.836,194.532
45-54,5,854.922,0.14,Hue-7 with Wave-5,,True,1,0.07,3.8909157970068255,0.290507550614813,high_school,6,0.3,male,100,6,5da88a6037d42100144928bd,0.3,6480,4,59,65,3,,true,193.104,295.253,362.794,417.191,4.836,194.532
45-54,5,854.922,0.07,Hue-7 with Wave-5,,True,1,0.07,3.8909157970068255,0.1916990340638442,high_school,6,0.2,male,81,3,5da88a6037d42100144928bd,0.2,6233,3,60,65,3,,true,193.104,295.253,362.794,417.191,4.836,194.532
45-54,6,854.922,0.07,Hue-7 with Wave-5,,True,1,0.07,3.8909157970068255,0.1918804166296957,high_school,6,0.2,male,58,1,5da88a6037d42100144928bd,0.2,5165,2,62,65,3,,true,193.104,295.253,362.794,417.191,4.836,194.532
45-54,6,854.922,0.03,Hue-7 with Wave-5,,True,1,0.07,3.8909157970068255,0.0927081684346994,high_school,6,0.1,male,141,11,5da88a6037d42100144928bd,0.1,10474,3,63,65,3,,true,193.104,295.253,362.794,417.191,4.836,194.532
45-54,6,854.922,0.165,Hue-7 with Wave-5,,True,1,0.07,3.8909157970068255,0.3538508781169824,high_school,6,0.35,male,113,6,5da88a6037d42100144928bd,0.35,5035,2,64,65,3,,true,193.104,295.253,362.794,417.191,4.836,194.532
45-54,6,854.922,0.05,Hue-7 with Wave-5,,True,1,0.07,3.8909157970068255,0.1556943784907559,high_school,6,0.15,male,228,23,5da88a6037d42100144928bd,0.15,9556,3,65,65,3,,true,193.104,295.253,362.794,417.191,4.836,194.532
45-54,6,854.922,0.14,Hue-7 with Wave-5,,True,1,0.07,3.8909157970068255,0.2907043105997605,high_school,6,0.3,male,57,1,5da88a6037d42100144928bd,0.3,4813,2,66,65,3,,true,193.104,295.253,362.794,417.191,4.836,194.532
45-54,6,854.922,0.165,Hue-7 with Wave-5,,True,1,0.07,3.8909157970068255,0.3554513448988521,high_school,6,0.35,male,131,9,5da88a6037d42100144928bd,0.35,3899,2,67,65,3,,true,193.104,295.253,362.794,417.191,4.836,194.532
45-54,6,854.922,0.07,Hue-7 with Wave-5,,True,0,0.07,3.8909157970068255,0.1992864764239954,high_school,6,0.2,male,62,1,5da88a6037d42100144928bd,0.2,5974,2,68,65,3,,true,193.104,295.253,362.794,417.191,4.836,194.532
45-54,6,854.922,0.14,Hue-7 with Wave-5,,True,1,0.07,3.8909157970068255,0.2943054353630609,high_school,6,0.3,male,62,1,5da88a6037d42100144928bd,0.3,6448,4,69,65,3,,true,193.104,295.253,362.794,417.191,4.836,194.532
45-54,6,854.922,0.05,Hue-7 with Wave-5,,True,1,0.07,3.8909157970068255,0.1425099496237675,high_school,6,0.15,male,126,9,5da88a6037d42100144928bd,0.15,7620,4,70,65,3,,true,193.104,295.253,362.794,417.191,4.836,194.532
45-54,6,854.922,0.1,Hue-7 with Wave-5,,True,1,0.07,3.8909157970068255,0.2475442105760808,high_school,6,0.25,male,138,11,5da88a6037d42100144928bd,0.25,5879,4,71,65,3,,true,193.104,295.253,362.794,417.191,4.836,194.532
45-54,6,854.922,0.03,Hue-7 with Wave-5,,True,1,0.07,3.8909157970068255,0.1076883661174842,high_school,6,0.1,male,52,1,5da88a6037d42100144928bd,0.1,16598,4,72,65,3,,true,193.104,295.253,362.794,417.191,4.836,194.532
45-54,2,372.230,0.07,Hue-3 with Wave-6,,True,1,0.07,32.08102414,0.4032167210719056,high_school,6,0.2,male,277,29,5da88a6037d42100144928bd,0.2,14171,1,13,65,3,,false,155.895,134.736,415.840,362.432,3.139,304.756
45-54,2,372.230,0.1,Hue-3 with Wave-6,,True,1,0.07,32.08102414,0.4032167210719056,high_school,6,0.25,male,277,29,5da88a6037d42100144928bd,0.25,14171,1,13,65,3,,false,155.895,134.736,415.840,362.432,3.139,304.756
45-54,3,536.540,0.03,Hue-5 with Wave-9,,True,1,0.07,6.811468107,0.3973080579364146,high_school,6,0.1,male,224,24,5da88a6037d42100144928bd,0.1,8996,4,25,65,3,,true,189.601,211.384,658.122,395.151,3.142,340.417
45-54,5,854.922,0.1,Hue-7 with Wave-5,,True,1,0.07,3.890915797,0.399022878756313,high_school,6,0.25,male,95,5,5da88a6037d42100144928bd,0.25,11365,1,49,65,3,,true,193.104,295.253,362.794,417.191,4.836,194.532
45-54,5,854.922,0.14,Hue-7 with Wave-5,,True,1,0.07,3.890915797,0.399022878756313,high_school,6,0.3,male,95,5,5da88a6037d42100144928bd,0.3,11365,1,49,65,3,,true,193.104,295.253,362.794,417.191,4.836,194.532
45-54,1,83.761,0.05,Hue-3 with Wave-1,,True,1,0.07,12.607249827972192,0.1448126539468088,other,6,0.15,female,308,4,5e42fc295135b5000cd20d0b,0.15,13347,1,1,63,4,,true,84.123,105.354,79.644,121.698,0.613,37.222
45-54,1,83.761,0.07,Hue-3 with Wave-1,,True,1,0.07,12.607249827972192,0.1990772191395744,other,6,0.2,female,372,7,5e42fc295135b5000cd20d0b,0.2,3477,3,2,63,4,,true,84.123,105.354,79.644,121.698,0.613,37.222
45-54,1,83.761,0.14,Hue-3 with Wave-1,,True,1,0.07,12.607249827972192,0.2917378923470836,other,6,0.3,female,759,15,5e42fc295135b5000cd20d0b,0.3,3036,1,3,63,4,,true,84.123,105.354,79.644,121.698,0.613,37.222
45-54,1,83.761,0.165,Hue-3 with Wave-1,,True,1,0.07,12.607249827972192,0.3565610938096439,other,6,0.35,female,209,2,5e42fc295135b5000cd20d0b,0.35,2079,4,4,63,4,,true,84.123,105.354,79.644,121.698,0.613,37.222
45-54,1,83.761,0.165,Hue-3 with Wave-1,,True,1,0.07,12.607249827972192,0.351089903110955,other,6,0.35,female,171,1,5e42fc295135b5000cd20d0b,0.35,3900,2,5,63,4,,true,84.123,105.354,79.644,121.698,0.613,37.222
45-54,1,83.761,0.03,Hue-3 with Wave-1,,True,1,0.07,12.607249827972192,0.0937789765129804,other,6,0.1,female,144,1,5e42fc295135b5000cd20d0b,0.1,5148,4,6,63,4,,true,84.123,105.354,79.644,121.698,0.613,37.222
45-54,1,83.761,0.1,Hue-3 with Wave-1,,True,1,0.07,12.607249827972192,0.2518545372332521,other,6,0.25,female,132,1,5e42fc295135b5000cd20d0b,0.25,5780,2,7,63,4,,true,84.123,105.354,79.644,121.698,0.613,37.222
45-54,1,83.761,0.03,Hue-3 with Wave-1,,True,1,0.07,12.607249827972192,0.0996040336563089,other,6,0.1,female,171,2,5e42fc295135b5000cd20d0b,0.1,4577,3,8,63,4,,true,84.123,105.354,79.644,121.698,0.613,37.222
45-54,1,83.761,0.07,Hue-3 with Wave-1,,True,0,0.07,12.607249827972192,0.2051468083915044,other,6,0.2,female,382,6,5e42fc295135b5000cd20d0b,0.2,4732,2,9,63,4,,true,84.123,105.354,79.644,121.698,0.613,37.222
45-54,1,83.761,0.1,Hue-3 with Wave-1,,True,1,0.07,12.607249827972192,0.2449945834091127,other,6,0.25,female,528,10,5e42fc295135b5000cd20d0b,0.25,4417,4,10,63,4,,true,84.123,105.354,79.644,121.698,0.613,37.222
45-54,1,83.761,0.05,Hue-3 with Wave-1,,True,1,0.07,12.607249827972192,0.1545114167540059,other,6,0.15,female,152,1,5e42fc295135b5000cd20d0b,0.15,5252,4,11,63,4,,true,84.123,105.354,79.644,121.698,0.613,37.222
45-54,1,83.761,0.14,Hue-3 with Wave-1,,True,1,0.07,12.607249827972192,0.2924145409613547,other,6,0.3,female,134,1,5e42fc295135b5000cd20d0b,0.3,6591,4,12,63,4,,true,84.123,105.354,79.644,121.698,0.613,37.222
45-54,2,681.338,0.1,Hue-7 with Wave-4,,True,1,0.07,55.68182468462979,0.2411272585628962,other,6,0.25,female,291,5,5e42fc295135b5000cd20d0b,0.25,2337,1,14,63,4,,true,178.082,296.002,300.777,442.203,5.469,238.037
45-54,2,681.338,0.05,Hue-7 with Wave-4,,True,1,0.07,55.68182468462979,0.1491895342685952,other,6,0.15,female,256,3,5e42fc295135b5000cd20d0b,0.15,2918,1,15,63,4,,true,178.082,296.002,300.777,442.203,5.469,238.037
45-54,2,681.338,0.14,Hue-7 with Wave-4,,True,1,0.07,55.68182468462979,0.2931470405965529,other,6,0.3,female,297,4,5e42fc295135b5000cd20d0b,0.3,4046,3,16,63,4,,true,178.082,296.002,300.777,442.203,5.469,238.037
45-54,2,681.338,0.1,Hue-7 with Wave-4,,True,1,0.07,55.68182468462979,0.255291833306423,other,6,0.25,female,130,1,5e42fc295135b5000cd20d0b,0.25,1904,3,17,63,4,,true,178.082,296.002,300.777,442.203,5.469,238.037
45-54,2,681.338,0.05,Hue-7 with Wave-4,,True,1,0.07,55.68182468462979,0.1453642488561963,other,6,0.15,female,343,7,5e42fc295135b5000cd20d0b,0.15,2275,3,18,63,4,,true,178.082,296.002,300.777,442.203,5.469,238.037
45-54,2,681.338,0.165,Hue-7 with Wave-4,,True,1,0.07,55.68182468462979,0.3460183607271391,other,6,0.35,female,1018,22,5e42fc295135b5000cd20d0b,0.35,3787,1,19,63,4,,true,178.082,296.002,300.777,442.203,5.469,238.037
45-54,2,681.338,0.03,Hue-7 with Wave-4,,True,1,0.07,55.68182468462979,0.1024678839152156,other,6,0.1,female,404,8,5e42fc295135b5000cd20d0b,0.1,13575,2,20,63,4,,true,178.082,296.002,300.777,442.203,5.469,238.037
45-54,2,681.338,0.165,Hue-7 with Wave-4,,True,1,0.07,55.68182468462979,0.3568264817098945,other,6,0.35,female,540,12,5e42fc295135b5000cd20d0b,0.35,3043,2,21,63,4,,true,178.082,296.002,300.777,442.203,5.469,238.037
45-54,2,681.338,0.07,Hue-7 with Wave-4,,True,1,0.07,55.68182468462979,0.1989036758373318,other,6,0.2,female,120,1,5e42fc295135b5000cd20d0b,0.2,4373,2,22,63,4,,true,178.082,296.002,300.777,442.203,5.469,238.037
45-54,2,681.338,0.03,Hue-7 with Wave-4,,True,1,0.07,55.68182468462979,0.0989557816940187,other,6,0.1,female,142,2,5e42fc295135b5000cd20d0b,0.1,2960,4,23,63,4,,true,178.082,296.002,300.777,442.203,5.469,238.037
45-54,2,681.338,0.07,Hue-7 with Wave-4,,True,1,0.07,55.68182468462979,0.2082552769773837,other,6,0.2,female,224,3,5e42fc295135b5000cd20d0b,0.2,2302,2,24,63,4,,true,178.082,296.002,300.777,442.203,5.469,238.037
45-54,3,78.544,0.165,Hue-3 with Wave-7,,True,1,0.07,12.607249827972192,0.3493211774976647,other,6,0.35,female,186,2,5e42fc295135b5000cd20d0b,0.35,2663,3,26,63,4,,true,156.624,125.815,487.863,324.245,3.369,335.895
45-54,3,78.544,0.07,Hue-3 with Wave-7,,True,1,0.07,12.607249827972192,0.200807205903152,other,6,0.2,female,432,8,5e42fc295135b5000cd20d0b,0.2,8346,4,27,63,4,,true,156.624,125.815,487.863,324.245,3.369,335.895
45-54,3,78.544,0.1,Hue-3 with Wave-7,,True,1,0.07,12.607249827972192,0.2515553049183726,other,6,0.25,female,808,17,5e42fc295135b5000cd20d0b,0.25,6933,1,28,63,4,,true,156.624,125.815,487.863,324.245,3.369,335.895
45-54,3,78.544,0.165,Hue-3 with Wave-7,,True,1,0.07,12.607249827972192,0.347928178784427,other,6,0.35,female,353,7,5e42fc295135b5000cd20d0b,0.35,4477,3,29,63,4,,true,156.624,125.815,487.863,324.245,3.369,335.895
45-54,3,78.544,0.07,Hue-3 with Wave-7,,True,1,0.07,12.607249827972192,0.2063319250499207,other,6,0.2,female,328,5,5e42fc295135b5000cd20d0b,0.2,2057,2,30,63,4,,true,156.624,125.815,487.863,324.245,3.369,335.895
45-54,3,78.544,0.05,Hue-3 with Wave-7,,True,1,0.07,12.607249827972192,0.1519492532066287,other,6,0.15,female,123,1,5e42fc295135b5000cd20d0b,0.15,6041,4,31,63,4,,true,156.624,125.815,487.863,324.245,3.369,335.895
45-54,3,78.544,0.14,Hue-3 with Wave-7,,True,1,0.07,12.607249827972192,0.2987319590726642,other,6,0.3,female,277,5,5e42fc295135b5000cd20d0b,0.3,2899,4,32,63,4,,true,156.624,125.815,487.863,324.245,3.369,335.895
45-54,3,78.544,0.14,Hue-3 with Wave-7,,True,1,0.07,12.607249827972192,0.2970284545641611,other,6,0.3,female,454,8,5e42fc295135b5000cd20d0b,0.3,4273,4,33,63,4,,true,156.624,125.815,487.863,324.245,3.369,335.895
45-54,3,78.544,0.05,Hue-3 with Wave-7,,True,1,0.07,12.607249827972192,0.1463685049925268,other,6,0.15,female,151,1,5e42fc295135b5000cd20d0b,0.15,3928,2,34,63,4,,true,156.624,125.815,487.863,324.245,3.369,335.895
45-54,3,78.544,0.03,Hue-3 with Wave-7,,True,0,0.07,12.607249827972192,0.100091172736672,other,6,0.1,female,160,1,5e42fc295135b5000cd20d0b,0.1,8385,4,35,63,4,,true,156.624,125.815,487.863,324.245,3.369,335.895
45-54,3,78.544,0.1,Hue-3 with Wave-7,,True,1,0.07,12.607249827972192,0.2453380901836369,other,6,0.25,female,408,7,5e42fc295135b5000cd20d0b,0.25,3398,3,36,63,4,,true,156.624,125.815,487.863,324.245,3.369,335.895
45-54,4,662.110,0.1,Hue-5 with Wave-6,,True,1,0.07,53.2565388373804,0.2559367028956312,other,6,0.25,female,185,2,5e42fc295135b5000cd20d0b,0.25,2061,1,38,63,4,,true,173.239,215.149,435.877,407.605,4.788,238.458
45-54,4,662.110,0.14,Hue-5 with Wave-6,,True,1,0.07,53.2565388373804,0.2943806489464596,other,6,0.3,female,311,5,5e42fc295135b5000cd20d0b,0.3,2395,2,39,63,4,,true,173.239,215.149,435.877,407.605,4.788,238.458
45-54,4,662.110,0.05,Hue-5 with Wave-6,,True,1,0.07,53.2565388373804,0.1406964031638158,other,6,0.15,female,137,1,5e42fc295135b5000cd20d0b,0.15,2541,4,40,63,4,,true,173.239,215.149,435.877,407.605,4.788,238.458
45-54,4,662.110,0.03,Hue-5 with Wave-6,,True,1,0.07,53.2565388373804,0.1001151834106462,other,6,0.1,female,502,10,5e42fc295135b5000cd20d0b,0.1,4628,4,41,63,4,,true,173.239,215.149,435.877,407.605,4.788,238.458
45-54,4,662.110,0.14,Hue-5 with Wave-6,,True,1,0.07,53.2565388373804,0.2968382665942723,other,6,0.3,female,127,1,5e42fc295135b5000cd20d0b,0.3,3479,4,42,63,4,,true,173.239,215.149,435.877,407.605,4.788,238.458
45-54,4,662.110,0.07,Hue-5 with Wave-6,,True,1,0.07,53.2565388373804,0.2073987321561574,other,6,0.2,female,185,2,5e42fc295135b5000cd20d0b,0.2,2956,1,43,63,4,,true,173.239,215.149,435.877,407.605,4.788,238.458
45-54,4,662.110,0.05,Hue-5 with Wave-6,,True,1,0.07,53.2565388373804,0.1520237861880698,other,6,0.15,female,164,2,5e42fc295135b5000cd20d0b,0.15,5720,1,44,63,4,,true,173.239,215.149,435.877,407.605,4.788,238.458
45-54,4,662.110,0.03,Hue-5 with Wave-6,,True,0,0.07,53.2565388373804,0.0976471218123324,other,6,0.1,female,390,6,5e42fc295135b5000cd20d0b,0.1,3534,2,45,63,4,,true,173.239,215.149,435.877,407.605,4.788,238.458
45-54,4,662.110,0.165,Hue-5 with Wave-6,,True,1,0.07,53.2565388373804,0.3443640287832114,other,6,0.35,female,827,17,5e42fc295135b5000cd20d0b,0.35,4483,4,46,63,4,,true,173.239,215.149,435.877,407.605,4.788,238.458
45-54,4,662.110,0.07,Hue-5 with Wave-6,,True,1,0.07,53.2565388373804,0.2074423182140296,other,6,0.2,female,836,18,5e42fc295135b5000cd20d0b,0.2,3450,1,47,63,4,,true,173.239,215.149,435.877,407.605,4.788,238.458
45-54,4,662.110,0.1,Hue-5 with Wave-6,,True,1,0.07,53.2565388373804,0.248362589901761,other,6,0.25,female,265,3,5e42fc295135b5000cd20d0b,0.25,3459,3,48,63,4,,true,173.239,215.149,435.877,407.605,4.788,238.458
45-54,5,919.551,0.05,Hue-7 with Wave-5,,True,1,0.07,55.68182468462979,0.1593365720334591,other,6,0.15,female,210,2,5e42fc295135b5000cd20d0b,0.15,3053,2,50,63,4,,true,186.591,287.051,361.621,398.979,5.155,314.298
45-54,5,919.551,0.165,Hue-7 with Wave-5,,True,1,0.07,55.68182468462979,0.3453826659042674,other,6,0.35,female,189,2,5e42fc295135b5000cd20d0b,0.35,2269,2,51,63,4,,true,186.591,287.051,361.621,398.979,5.155,314.298
45-54,5,919.551,0.14,Hue-7 with Wave-5,,True,1,0.07,55.68182468462979,0.3057237477281596,other,6,0.3,female,676,14,5e42fc295135b5000cd20d0b,0.3,2513,4,52,63,4,,true,186.591,287.051,361.621,398.979,5.155,314.298
45-54,5,919.551,0.07,Hue-7 with Wave-5,,True,1,0.07,55.68182468462979,0.2032445359248773,other,6,0.2,female,155,1,5e42fc295135b5000cd20d0b,0.2,1787,2,53,63,4,,true,186.591,287.051,361.621,398.979,5.155,314.298
45-54,5,919.551,0.1,Hue-7 with Wave-5,,True,1,0.07,55.68182468462979,0.2576326528182685,other,6,0.25,female,163,1,5e42fc295135b5000cd20d0b,0.25,1928,3,54,63,4,,true,186.591,287.051,361.621,398.979,5.155,314.298
45-54,5,919.551,0.165,Hue-7 with Wave-5,,True,1,0.07,55.68182468462979,0.3409574041330737,other,6,0.35,female,304,5,5e42fc295135b5000cd20d0b,0.35,1572,2,55,63,4,,true,186.591,287.051,361.621,398.979,5.155,314.298
45-54,5,919.551,0.1,Hue-7 with Wave-5,,True,1,0.07,55.68182468462979,0.2539771539307305,other,6,0.25,female,209,2,5e42fc295135b5000cd20d0b,0.25,2647,3,56,63,4,,true,186.591,287.051,361.621,398.979,5.155,314.298
45-54,5,919.551,0.14,Hue-7 with Wave-5,,True,1,0.07,55.68182468462979,0.2945545851471398,other,6,0.3,female,345,7,5e42fc295135b5000cd20d0b,0.3,2182,3,57,63,4,,true,186.591,287.051,361.621,398.979,5.155,314.298
45-54,5,919.551,0.03,Hue-7 with Wave-5,,True,0,0.07,55.68182468462979,0.0948720617116542,other,6,0.1,female,165,2,5e42fc295135b5000cd20d0b,0.1,10719,1,58,63,4,,true,186.591,287.051,361.621,398.979,5.155,314.298
45-54,5,919.551,0.03,Hue-7 with Wave-5,,True,0,0.07,55.68182468462979,0.1084341508004514,other,6,0.1,female,146,1,5e42fc295135b5000cd20d0b,0.1,4807,1,59,63,4,,true,186.591,287.051,361.621,398.979,5.155,314.298
45-54,5,919.551,0.05,Hue-7 with Wave-5,,True,0,0.07,55.68182468462979,0.1489350778823691,other,6,0.15,female,151,1,5e42fc295135b5000cd20d0b,0.15,3202,3,60,63,4,,true,186.591,287.051,361.621,398.979,5.155,314.298
45-54,6,977.349,0.14,Hue-5 with Wave-8,,True,1,0.07,53.2565388373804,0.3038669404254985,other,6,0.3,female,450,8,5e42fc295135b5000cd20d0b,0.3,2213,3,62,63,4,,true,179.059,213.313,578.763,627.237,7.189,255.816
45-54,6,977.349,0.165,Hue-5 with Wave-8,,True,1,0.07,53.2565388373804,0.3429991899153762,other,6,0.35,female,1059,24,5e42fc295135b5000cd20d0b,0.35,1958,4,63,63,4,,true,179.059,213.313,578.763,627.237,7.189,255.816
45-54,6,977.349,0.1,Hue-5 with Wave-8,,True,1,0.07,53.2565388373804,0.2445020500264219,other,6,0.25,female,156,2,5e42fc295135b5000cd20d0b,0.25,3198,1,64,63,4,,true,179.059,213.313,578.763,627.237,7.189,255.816
45-54,6,977.349,0.14,Hue-5 with Wave-8,,True,1,0.07,53.2565388373804,0.29707079852377,other,6,0.3,female,301,5,5e42fc295135b5000cd20d0b,0.3,2112,3,65,63,4,,true,179.059,213.313,578.763,627.237,7.189,255.816
45-54,6,977.349,0.05,Hue-5 with Wave-8,,True,1,0.07,53.2565388373804,0.1427957185004257,other,6,0.15,female,142,1,5e42fc295135b5000cd20d0b,0.15,3977,1,66,63,4,,true,179.059,213.313,578.763,627.237,7.189,255.816
45-54,6,977.349,0.165,Hue-5 with Wave-8,,True,1,0.07,53.2565388373804,0.3447670953834967,other,6,0.35,female,456,8,5e42fc295135b5000cd20d0b,0.35,2034,4,67,63,4,,true,179.059,213.313,578.763,627.237,7.189,255.816
45-54,6,977.349,0.05,Hue-5 with Wave-8,,True,1,0.07,53.2565388373804,0.1505743532449149,other,6,0.15,female,131,1,5e42fc295135b5000cd20d0b,0.15,1693,4,68,63,4,,true,179.059,213.313,578.763,627.237,7.189,255.816
45-54,6,977.349,0.03,Hue-5 with Wave-8,,True,0,0.07,53.2565388373804,0.09301656601778,other,6,0.1,female,262,4,5e42fc295135b5000cd20d0b,0.1,7240,1,69,63,4,,true,179.059,213.313,578.763,627.237,7.189,255.816
45-54,6,977.349,0.03,Hue-5 with Wave-8,,True,0,0.07,53.2565388373804,0.0926034543911734,other,6,0.1,female,203,3,5e42fc295135b5000cd20d0b,0.1,6129,3,70,63,4,,true,179.059,213.313,578.763,627.237,7.189,255.816
45-54,6,977.349,0.07,Hue-5 with Wave-8,,True,1,0.07,53.2565388373804,0.2001432276628915,other,6,0.2,female,228,2,5e42fc295135b5000cd20d0b,0.2,4577,1,71,63,4,,true,179.059,213.313,578.763,627.237,7.189,255.816
45-54,6,977.349,0.1,Hue-5 with Wave-8,,True,0,0.07,53.2565388373804,0.2439252250510706,other,6,0.25,female,147,1,5e42fc295135b5000cd20d0b,0.25,2163,2,72,63,4,,true,179.059,213.313,578.763,627.237,7.189,255.816
45-54,3,78.544,0.03,Hue-3 with Wave-7,,True,1,0.07,12.60724983,0.3961862410175815,other,6,0.1,female,373,6,5e42fc295135b5000cd20d0b,0.1,4223,2,25,63,4,,true,156.624,125.815,487.863,324.245,3.369,335.895
45-54,4,662.110,0.165,Hue-5 with Wave-6,,True,1,0.07,53.25653884,0.4057599938524616,other,6,0.35,female,367,7,5e42fc295135b5000cd20d0b,0.35,4222,1,37,63,4,,true,173.239,215.149,435.877,407.605,4.788,238.458
45-54,6,977.349,0.07,Hue-5 with Wave-8,,True,1,0.07,53.25653884,0.3940024939445208,other,6,0.2,female,406,7,5e42fc295135b5000cd20d0b,0.2,3177,2,61,63,4,,true,179.059,213.313,578.763,627.237,7.189,255.816
45-54,2,681.338,0.14,Hue-7 with Wave-4,,True,1,0.07,55.68182468,0.397774666267176,other,6,0.3,female,475,8,5e42fc295135b5000cd20d0b,0.3,4158,2,13,63,4,,true,178.082,296.002,300.777,442.203,5.469,238.037
45-54,5,919.551,0.07,Hue-7 with Wave-5,,True,1,0.07,55.68182468,0.3939100696940534,other,6,0.2,female,170,2,5e42fc295135b5000cd20d0b,0.2,4011,3,49,63,4,,true,186.591,287.051,361.621,398.979,5.155,314.298
25-34,1,808.326,0.07,Hue-7 with Wave-1,,True,1,0.07,35.59043512799771,0.1931458050169533,bachelor,6,0.2,female,192,3,60165591d472ae0b5c202703,0.2,12262,1,1,56,5,,true,134.810,278.256,75.338,286.248,4.061,148.203
25-34,1,808.326,0.14,Hue-7 with Wave-1,,True,1,0.07,35.59043512799771,0.2977453817182559,bachelor,6,0.3,female,88,1,60165591d472ae0b5c202703,0.3,4925,3,2,56,5,,true,134.810,278.256,75.338,286.248,4.061,148.203
25-34,1,808.326,0.05,Hue-7 with Wave-1,,True,1,0.07,35.59043512799771,0.1491683110269563,bachelor,6,0.15,female,229,6,60165591d472ae0b5c202703,0.15,7103,4,3,56,5,,true,134.810,278.256,75.338,286.248,4.061,148.203
25-34,1,808.326,0.1,Hue-7 with Wave-1,,True,1,0.07,35.59043512799771,0.2409842193700507,bachelor,6,0.25,female,369,11,60165591d472ae0b5c202703,0.25,3746,3,4,56,5,,true,134.810,278.256,75.338,286.248,4.061,148.203
25-34,1,808.326,0.165,Hue-7 with Wave-1,,True,1,0.07,35.59043512799771,0.3567536711352916,bachelor,6,0.35,female,1231,43,60165591d472ae0b5c202703,0.35,5544,2,5,56,5,,true,134.810,278.256,75.338,286.248,4.061,148.203
25-34,1,808.326,0.03,Hue-7 with Wave-1,,True,0,0.07,35.59043512799771,0.0906331176707122,bachelor,6,0.1,female,67,1,60165591d472ae0b5c202703,0.1,3486,3,6,56,5,,true,134.810,278.256,75.338,286.248,4.061,148.203
25-34,1,808.326,0.165,Hue-7 with Wave-1,,True,0,0.07,35.59043512799771,0.3511981028687493,bachelor,6,0.35,female,684,23,60165591d472ae0b5c202703,0.35,2587,1,7,56,5,,true,134.810,278.256,75.338,286.248,4.061,148.203
25-34,1,808.326,0.1,Hue-7 with Wave-1,,True,1,0.07,35.59043512799771,0.2492044042835292,bachelor,6,0.25,female,68,1,60165591d472ae0b5c202703,0.25,3658,2,8,56,5,,true,134.810,278.256,75.338,286.248,4.061,148.203
25-34,1,808.326,0.14,Hue-7 with Wave-1,,True,1,0.07,35.59043512799771,0.3005981496358338,bachelor,6,0.3,female,299,9,60165591d472ae0b5c202703,0.3,3651,4,9,56,5,,true,134.810,278.256,75.338,286.248,4.061,148.203
25-34,1,808.326,0.07,Hue-7 with Wave-1,,True,1,0.07,35.59043512799771,0.2049023598827174,bachelor,6,0.2,female,91,2,60165591d472ae0b5c202703,0.2,3229,3,10,56,5,,true,134.810,278.256,75.338,286.248,4.061,148.203
25-34,1,808.326,0.03,Hue-7 with Wave-1,,True,0,0.07,35.59043512799771,0.1001771762056114,bachelor,6,0.1,female,67,1,60165591d472ae0b5c202703,0.1,5047,4,11,56,5,,true,134.810,278.256,75.338,286.248,4.061,148.203
25-34,1,808.326,0.05,Hue-7 with Wave-1,,True,0,0.07,35.59043512799771,0.1514013172983046,bachelor,6,0.15,female,125,3,60165591d472ae0b5c202703,0.15,5911,1,12,56,5,,true,134.810,278.256,75.338,286.248,4.061,148.203
25-34,2,426.607,0.1,Hue-5 with Wave-1,,True,1,0.07,33.4493555117287,0.2474337301870953,bachelor,6,0.25,female,100,2,60165591d472ae0b5c202703,0.25,2233,2,14,56,5,,true,108.564,200.717,79.769,203.284,1.763,100.882
25-34,2,426.607,0.07,Hue-5 with Wave-1,,True,0,0.07,33.4493555117287,0.1957397937165428,bachelor,6,0.2,female,76,1,60165591d472ae0b5c202703,0.2,6374,2,15,56,5,,true,108.564,200.717,79.769,203.284,1.763,100.882
25-34,2,426.607,0.165,Hue-5 with Wave-1,,True,1,0.07,33.4493555117287,0.3552565990777823,bachelor,6,0.35,female,384,13,60165591d472ae0b5c202703,0.35,2561,2,16,56,5,,true,108.564,200.717,79.769,203.284,1.763,100.882
25-34,2,426.607,0.165,Hue-5 with Wave-1,,True,1,0.07,33.4493555117287,0.3559327827391839,bachelor,6,0.35,female,131,3,60165591d472ae0b5c202703,0.35,3807,3,17,56,5,,true,108.564,200.717,79.769,203.284,1.763,100.882
25-34,2,426.607,0.05,Hue-5 with Wave-1,,True,1,0.07,33.4493555117287,0.1477144640032714,bachelor,6,0.15,female,95,2,60165591d472ae0b5c202703,0.15,5531,4,18,56,5,,true,108.564,200.717,79.769,203.284,1.763,100.882
25-34,2,426.607,0.03,Hue-5 with Wave-1,,True,1,0.07,33.4493555117287,0.1073993865003988,bachelor,6,0.1,female,72,1,60165591d472ae0b5c202703,0.1,2230,2,19,56,5,,true,108.564,200.717,79.769,203.284,1.763,100.882
25-34,2,426.607,0.05,Hue-5 with Wave-1,,True,0,0.07,33.4493555117287,0.1561026072800282,bachelor,6,0.15,female,104,2,60165591d472ae0b5c202703,0.15,2577,1,20,56,5,,true,108.564,200.717,79.769,203.284,1.763,100.882
25-34,2,426.607,0.1,Hue-5 with Wave-1,,True,1,0.07,33.4493555117287,0.2441784198807854,bachelor,6,0.25,female,223,7,60165591d472ae0b5c202703,0.25,4576,1,21,56,5,,true,108.564,200.717,79.769,203.284,1.763,100.882
25-34,2,426.607,0.14,Hue-5 with Wave-1,,True,1,0.07,33.4493555117287,0.3010294513349354,bachelor,6,0.3,female,119,3,60165591d472ae0b5c202703,0.3,2807,4,22,56,5,,true,108.564,200.717,79.769,203.284,1.763,100.882
25-34,2,426.607,0.14,Hue-5 with Wave-1,,True,1,0.07,33.4493555117287,0.3099302174071541,bachelor,6,0.3,female,118,3,60165591d472ae0b5c202703,0.3,2707,1,23,56,5,,true,108.564,200.717,79.769,203.284,1.763,100.882
25-34,2,426.607,0.07,Hue-5 with Wave-1,,True,1,0.07,33.4493555117287,0.1975152777306507,bachelor,6,0.2,female,401,13,60165591d472ae0b5c202703,0.2,3218,3,24,56,5,,true,108.564,200.717,79.769,203.284,1.763,100.882
25-34,3,535.927,0.05,Hue-3 with Wave-8,,True,1,0.07,33.1426303329315,0.145209182738478,bachelor,6,0.15,female,136,3,60165591d472ae0b5c202703,0.15,4760,4,26,56,5,,false,157.227,122.081,513.218,566.712,6.097,357.706
25-34,3,535.927,0.05,Hue-3 with Wave-8,,True,0,0.07,33.1426303329315,0.1483915611684002,bachelor,6,0.15,female,234,7,60165591d472ae0b5c202703,0.15,6322,3,27,56,5,,false,157.227,122.081,513.218,566.712,6.097,357.706
25-34,3,535.927,0.07,Hue-3 with Wave-8,,True,1,0.07,33.1426303329315,0.2083316820050061,bachelor,6,0.2,female,72,1,60165591d472ae0b5c202703,0.2,3340,2,28,56,5,,false,157.227,122.081,513.218,566.712,6.097,357.706
25-34,3,535.927,0.03,Hue-3 with Wave-8,,True,0,0.07,33.1426303329315,0.1039166052009317,bachelor,6,0.1,female,111,3,60165591d472ae0b5c202703,0.1,3305,2,29,56,5,,false,157.227,122.081,513.218,566.712,6.097,357.706
25-34,3,535.927,0.165,Hue-3 with Wave-8,,True,1,0.07,33.1426303329315,0.3595076493665192,bachelor,6,0.35,female,124,3,60165591d472ae0b5c202703,0.35,3467,3,30,56,5,,false,157.227,122.081,513.218,566.712,6.097,357.706
25-34,3,535.927,0.14,Hue-3 with Wave-8,,True,1,0.07,33.1426303329315,0.2969048550936152,bachelor,6,0.3,female,409,14,60165591d472ae0b5c202703,0.3,3648,1,31,56,5,,false,157.227,122.081,513.218,566.712,6.097,357.706
25-34,3,535.927,0.1,Hue-3 with Wave-8,,True,1,0.07,33.1426303329315,0.2522886390036288,bachelor,6,0.25,female,362,12,60165591d472ae0b5c202703,0.25,3283,3,32,56,5,,false,157.227,122.081,513.218,566.712,6.097,357.706
25-34,3,535.927,0.07,Hue-3 with Wave-8,,True,1,0.07,33.1426303329315,0.1992517402576028,bachelor,6,0.2,female,218,6,60165591d472ae0b5c202703,0.2,4835,3,33,56,5,,false,157.227,122.081,513.218,566.712,6.097,357.706
25-34,3,535.927,0.14,Hue-3 with Wave-8,,True,1,0.07,33.1426303329315,0.3094927866051928,bachelor,6,0.3,female,138,3,60165591d472ae0b5c202703,0.3,2626,3,34,56,5,,false,157.227,122.081,513.218,566.712,6.097,357.706
25-34,3,535.927,0.1,Hue-3 with Wave-8,,True,1,0.07,33.1426303329315,0.2554657687343226,bachelor,6,0.25,female,66,1,60165591d472ae0b5c202703,0.25,3801,3,35,56,5,,false,157.227,122.081,513.218,566.712,6.097,357.706
25-34,3,535.927,0.165,Hue-3 with Wave-8,,True,1,0.07,33.1426303329315,0.3433237178852401,bachelor,6,0.35,female,406,13,60165591d472ae0b5c202703,0.35,2462,2,36,56,5,,false,157.227,122.081,513.218,566.712,6.097,357.706
25-34,4,933.265,0.07,Hue-7 with Wave-0,,True,1,0.07,35.59043512799771,0.1958931348997447,bachelor,6,0.2,female,270,8,60165591d472ae0b5c202703,0.2,4495,1,38,56,5,,true,139.438,279.825,38.196,350.913,4.366,156.705
25-34,4,933.265,0.14,Hue-7 with Wave-0,,True,0,0.07,35.59043512799771,0.2938338937498144,bachelor,6,0.3,female,192,5,60165591d472ae0b5c202703,0.3,4000,1,39,56,5,,true,139.438,279.825,38.196,350.913,4.366,156.705
25-34,4,933.265,0.05,Hue-7 with Wave-0,,True,0,0.07,35.59043512799771,0.1507347808611706,bachelor,6,0.15,female,64,1,60165591d472ae0b5c202703,0.15,5675,3,40,56,5,,true,139.438,279.825,38.196,350.913,4.366,156.705
25-34,4,933.265,0.03,Hue-7 with Wave-0,,True,1,0.07,35.59043512799771,0.0941047428939121,bachelor,6,0.1,female,244,7,60165591d472ae0b5c202703,0.1,2658,1,41,56,5,,true,139.438,279.825,38.196,350.913,4.366,156.705
25-34,4,933.265,0.14,Hue-7 with Wave-0,,True,1,0.07,35.59043512799771,0.3071970663525293,bachelor,6,0.3,female,351,9,60165591d472ae0b5c202703,0.3,2988,3,42,56,5,,true,139.438,279.825,38.196,350.913,4.366,156.705
25-34,4,933.265,0.1,Hue-7 with Wave-0,,True,1,0.07,35.59043512799771,0.2504190144333923,bachelor,6,0.25,female,519,14,60165591d472ae0b5c202703,0.25,5790,4,43,56,5,,true,139.438,279.825,38.196,350.913,4.366,156.705
25-34,4,933.265,0.05,Hue-7 with Wave-0,,True,1,0.07,35.59043512799771,0.1425325656533577,bachelor,6,0.15,female,98,2,60165591d472ae0b5c202703,0.15,6234,1,44,56,5,,true,139.438,279.825,38.196,350.913,4.366,156.705
25-34,4,933.265,0.03,Hue-7 with Wave-0,,True,0,0.07,35.59043512799771,0.1054354826474433,bachelor,6,0.1,female,195,5,60165591d472ae0b5c202703,0.1,5802,3,45,56,5,,true,139.438,279.825,38.196,350.913,4.366,156.705
25-34,4,933.265,0.165,Hue-7 with Wave-0,,True,0,0.07,35.59043512799771,0.3442439013174596,bachelor,6,0.35,female,301,9,60165591d472ae0b5c202703,0.35,1809,3,46,56,5,,true,139.438,279.825,38.196,350.913,4.366,156.705
25-34,4,933.265,0.1,Hue-7 with Wave-0,,True,1,0.07,35.59043512799771,0.2557020722225978,bachelor,6,0.25,female,250,7,60165591d472ae0b5c202703,0.25,6747,4,47,56,5,,true,139.438,279.825,38.196,350.913,4.366,156.705
25-34,4,933.265,0.165,Hue-7 with Wave-0,,True,1,0.07,35.59043512799771,0.3543780429440584,bachelor,6,0.35,female,214,6,60165591d472ae0b5c202703,0.35,4126,1,48,56,5,,true,139.438,279.825,38.196,350.913,4.366,156.705
25-34,5,442.180,0.03,Hue-5 with Wave-3,,True,1,0.07,33.4493555117287,0.1089901237157566,bachelor,6,0.1,female,66,1,60165591d472ae0b5c202703,0.1,4522,1,50,56,5,,true,150.481,218.377,225.478,309.144,2.838,185.159
25-34,5,442.180,0.165,Hue-5 with Wave-3,,True,0,0.07,33.4493555117287,0.3538120434981388,bachelor,6,0.35,female,623,21,60165591d472ae0b5c202703,0.35,2544,1,51,56,5,,true,150.481,218.377,225.478,309.144,2.838,185.159
25-34,5,442.180,0.1,Hue-5 with Wave-3,,True,1,0.07,33.4493555117287,0.2429946421397931,bachelor,6,0.25,female,400,12,60165591d472ae0b5c202703,0.25,3014,4,52,56,5,,true,150.481,218.377,225.478,309.144,2.838,185.159
25-34,5,442.180,0.05,Hue-5 with Wave-3,,True,1,0.07,33.4493555117287,0.1471197246712076,bachelor,6,0.15,female,99,2,60165591d472ae0b5c202703,0.15,4172,3,53,56,5,,true,150.481,218.377,225.478,309.144,2.838,185.159
25-34,5,442.180,0.07,Hue-5 with Wave-3,,True,1,0.07,33.4493555117287,0.1944398390031687,bachelor,6,0.2,female,541,17,60165591d472ae0b5c202703,0.2,3319,2,54,56,5,,true,150.481,218.377,225.478,309.144,2.838,185.159
25-34,5,442.180,0.03,Hue-5 with Wave-3,,True,0,0.07,33.4493555117287,0.1032964093910447,bachelor,6,0.1,female,170,4,60165591d472ae0b5c202703,0.1,5911,3,55,56,5,,true,150.481,218.377,225.478,309.144,2.838,185.159
25-34,5,442.180,0.14,Hue-5 with Wave-3,,True,1,0.07,33.4493555117287,0.2901025274662836,bachelor,6,0.3,female,774,26,60165591d472ae0b5c202703,0.3,3086,1,56,56,5,,true,150.481,218.377,225.478,309.144,2.838,185.159
25-34,5,442.180,0.07,Hue-5 with Wave-3,,True,1,0.07,33.4493555117287,0.2094604022150012,bachelor,6,0.2,female,1102,37,60165591d472ae0b5c202703,0.2,2384,4,57,56,5,,true,150.481,218.377,225.478,309.144,2.838,185.159
25-34,5,442.180,0.14,Hue-5 with Wave-3,,True,1,0.07,33.4493555117287,0.3010394691440613,bachelor,6,0.3,female,283,9,60165591d472ae0b5c202703,0.3,3947,1,58,56,5,,true,150.481,218.377,225.478,309.144,2.838,185.159
25-34,5,442.180,0.1,Hue-5 with Wave-3,,True,1,0.07,33.4493555117287,0.2512308796023196,bachelor,6,0.25,female,275,9,60165591d472ae0b5c202703,0.25,2008,4,59,56,5,,true,150.481,218.377,225.478,309.144,2.838,185.159
25-34,5,442.180,0.165,Hue-5 with Wave-3,,True,1,0.07,33.4493555117287,0.3410297082051264,bachelor,6,0.35,female,261,8,60165591d472ae0b5c202703,0.35,2481,4,60,56,5,,true,150.481,218.377,225.478,309.144,2.838,185.159
25-34,6,472.532,0.14,Hue-3 with Wave-4,,True,1,0.07,33.1426303329315,0.2971278648707652,bachelor,6,0.3,female,345,10,60165591d472ae0b5c202703,0.3,12306,4,62,56,5,,true,135.647,106.650,303.747,351.606,5.606,181.891
25-34,6,472.532,0.07,Hue-3 with Wave-4,,True,1,0.07,33.1426303329315,0.2050977385530279,bachelor,6,0.2,female,436,14,60165591d472ae0b5c202703,0.2,3675,1,63,56,5,,true,135.647,106.650,303.747,351.606,5.606,181.891
25-34,6,472.532,0.03,Hue-3 with Wave-4,,True,1,0.07,33.1426303329315,0.1067279298014509,bachelor,6,0.1,female,486,17,60165591d472ae0b5c202703,0.1,8876,4,64,56,5,,true,135.647,106.650,303.747,351.606,5.606,181.891
25-34,6,472.532,0.05,Hue-3 with Wave-4,,True,0,0.07,33.1426303329315,0.1435608055726485,bachelor,6,0.15,female,181,5,60165591d472ae0b5c202703,0.15,8136,3,65,56,5,,true,135.647,106.650,303.747,351.606,5.606,181.891
25-34,6,472.532,0.1,Hue-3 with Wave-4,,True,1,0.07,33.1426303329315,0.241275343561091,bachelor,6,0.25,female,215,6,60165591d472ae0b5c202703,0.25,3338,4,66,56,5,,true,135.647,106.650,303.747,351.606,5.606,181.891
25-34,6,472.532,0.05,Hue-3 with Wave-4,,True,1,0.07,33.1426303329315,0.1508494816108464,bachelor,6,0.15,female,116,3,60165591d472ae0b5c202703,0.15,3768,2,67,56,5,,true,135.647,106.650,303.747,351.606,5.606,181.891
25-34,6,472.532,0.03,Hue-3 with Wave-4,,True,0,0.07,33.1426303329315,0.0906996874695294,bachelor,6,0.1,female,88,2,60165591d472ae0b5c202703,0.1,2444,1,68,56,5,,true,135.647,106.650,303.747,351.606,5.606,181.891
25-34,6,472.532,0.165,Hue-3 with Wave-4,,True,1,0.07,33.1426303329315,0.3534500126117453,bachelor,6,0.35,female,295,10,60165591d472ae0b5c202703,0.35,2435,4,69,56,5,,true,135.647,106.650,303.747,351.606,5.606,181.891
25-34,6,472.532,0.1,Hue-3 with Wave-4,,True,1,0.07,33.1426303329315,0.244572103632972,bachelor,6,0.25,female,259,8,60165591d472ae0b5c202703,0.25,3920,3,70,56,5,,true,135.647,106.650,303.747,351.606,5.606,181.891
25-34,6,472.532,0.07,Hue-3 with Wave-4,,True,1,0.07,33.1426303329315,0.204020233253393,bachelor,6,0.2,female,127,3,60165591d472ae0b5c202703,0.2,2649,4,71,56,5,,true,135.647,106.650,303.747,351.606,5.606,181.891
25-34,6,472.532,0.165,Hue-3 with Wave-4,,True,1,0.07,33.1426303329315,0.3519703072501302,bachelor,6,0.35,female,194,5,60165591d472ae0b5c202703,0.35,3870,3,72,56,5,,true,135.647,106.650,303.747,351.606,5.606,181.891
25-34,6,472.532,0.14,Hue-3 with Wave-4,,True,1,0.07,33.14263033,0.4096844528664978,bachelor,6,0.3,female,397,13,60165591d472ae0b5c202703,0.3,4039,3,61,56,5,,true,135.647,106.650,303.747,351.606,5.606,181.891
25-34,3,535.927,0.03,Hue-3 with Wave-8,,True,1,0.07,33.14263033,0.3946518408897913,bachelor,6,0.1,female,521,17,60165591d472ae0b5c202703,0.1,5217,3,25,56,5,,false,157.227,122.081,513.218,566.712,6.097,357.706
25-34,2,426.607,0.03,Hue-5 with Wave-1,,True,1,0.07,33.44935551,0.3975259003027833,bachelor,6,0.1,female,71,1,60165591d472ae0b5c202703,0.1,7106,2,13,56,5,,true,108.564,200.717,79.769,203.284,1.763,100.882
25-34,5,442.180,0.05,Hue-5 with Wave-3,,True,1,0.07,33.44935551,0.3975402212613967,bachelor,6,0.15,female,143,4,60165591d472ae0b5c202703,0.15,3979,3,49,56,5,,true,150.481,218.377,225.478,309.144,2.838,185.159
25-34,4,933.265,0.07,Hue-7 with Wave-0,,True,1,0.07,35.59043513,0.409810777584242,bachelor,6,0.2,female,70,1,60165591d472ae0b5c202703,0.2,8645,1,37,56,5,,true,139.438,279.825,38.196,350.913,4.366,156.705
25-34,1,291.635,0.1,Hue-3 with Wave-3,,True,1,0.07,38.36534121,0.240732406,high_school,6,0.25,male,381,3,6296bef3248bf76cc113926b,0.25,5272,1,1,32,6,,true,131.765,113.252,225.207,269.308,2.746,196.756
25-34,1,291.635,0.14,Hue-3 with Wave-3,,True,1,0.07,38.36534121,0.309553651,high_school,6,0.3,male,161,4,6296bef3248bf76cc113926b,0.3,7760,2,2,32,6,,true,131.765,113.252,225.207,269.308,2.746,196.756
25-34,1,291.635,0.03,Hue-3 with Wave-3,,True,1,0.07,38.36534121,0.099927498,high_school,6,0.1,male,100,1,6296bef3248bf76cc113926b,0.1,174721,3,3,32,6,,true,131.765,113.252,225.207,269.308,2.746,196.756
25-34,1,291.635,0.14,Hue-3 with Wave-3,,True,1,0.07,38.36534121,0.291679053,high_school,6,0.3,male,123,3,6296bef3248bf76cc113926b,0.3,2941,3,4,32,6,,true,131.765,113.252,225.207,269.308,2.746,196.756
25-34,1,291.635,0.07,Hue-3 with Wave-3,,True,1,0.07,38.36534121,0.205011557,high_school,6,0.2,male,128,3,6296bef3248bf76cc113926b,0.2,2283,4,5,32,6,,true,131.765,113.252,225.207,269.308,2.746,196.756
25-34,1,291.635,0.165,Hue-3 with Wave-3,,True,0,0.07,38.36534121,0.34813402,high_school,6,0.35,male,226,4,6296bef3248bf76cc113926b,0.35,14909,4,6,32,6,,true,131.765,113.252,225.207,269.308,2.746,196.756
25-34,1,291.635,0.03,Hue-3 with Wave-3,,True,0,0.07,38.36534121,0.102041096,high_school,6,0.1,male,65,1,6296bef3248bf76cc113926b,0.1,14463,4,7,32,6,,true,131.765,113.252,225.207,269.308,2.746,196.756
25-34,1,291.635,0.05,Hue-3 with Wave-3,,True,0,0.07,38.36534121,0.147937436,high_school,6,0.15,male,121,3,6296bef3248bf76cc113926b,0.15,3764,2,8,32,6,,true,131.765,113.252,225.207,269.308,2.746,196.756
25-34,1,291.635,0.1,Hue-3 with Wave-3,,True,0,0.07,38.36534121,0.245614783,high_school,6,0.25,male,143,3,6296bef3248bf76cc113926b,0.25,4444,1,9,32,6,,true,131.765,113.252,225.207,269.308,2.746,196.756
25-34,1,291.635,0.165,Hue-3 with Wave-3,,True,1,0.07,38.36534121,0.358271567,high_school,6,0.35,male,391,8,6296bef3248bf76cc113926b,0.35,2461,4,10,32,6,,true,131.765,113.252,225.207,269.308,2.746,196.756
25-34,1,291.635,0.05,Hue-3 with Wave-3,,True,1,0.07,38.36534121,0.150260301,high_school,6,0.15,male,320,6,6296bef3248bf76cc113926b,0.15,4493,2,11,32,6,,true,131.765,113.252,225.207,269.308,2.746,196.756
25-34,1,291.635,0.07,Hue-3 with Wave-3,,True,0,0.07,38.36534121,0.198401874,high_school,6,0.2,male,150,4,6296bef3248bf76cc113926b,0.2,26303,1,12,32,6,,true,131.765,113.252,225.207,269.308,2.746,196.756
25-34,2,713.308,0.14,Hue-5 with Wave-7,,True,1,0.07,3.646108779,0.290085895,high_school,6,0.3,male,194,2,6296bef3248bf76cc113926b,0.3,43340,4,14,32,6,,true,181.234,211.146,517.860,382.634,3.295,271.979
25-34,2,713.308,0.1,Hue-5 with Wave-7,,True,1,0.07,3.646108779,0.243862541,high_school,6,0.25,male,338,8,6296bef3248bf76cc113926b,0.25,7553,1,15,32,6,,true,181.234,211.146,517.860,382.634,3.295,271.979
25-34,2,713.308,0.03,Hue-5 with Wave-7,,True,0,0.07,3.646108779,0.090668854,high_school,6,0.1,male,109,2,6296bef3248bf76cc113926b,0.1,35005,3,16,32,6,,true,181.234,211.146,517.860,382.634,3.295,271.979
25-34,2,713.308,0.1,Hue-5 with Wave-7,,True,1,0.07,3.646108779,0.259592252,high_school,6,0.25,male,109,2,6296bef3248bf76cc113926b,0.25,2602,3,17,32,6,,true,181.234,211.146,517.860,382.634,3.295,271.979
25-34,2,713.308,0.165,Hue-5 with Wave-7,,True,1,0.07,3.646108779,0.350465436,high_school,6,0.35,male,653,20,6296bef3248bf76cc113926b,0.35,13072,4,18,32,6,,true,181.234,211.146,517.860,382.634,3.295,271.979
25-34,2,713.308,0.05,Hue-5 with Wave-7,,True,0,0.07,3.646108779,0.156655349,high_school,6,0.15,male,299,6,6296bef3248bf76cc113926b,0.15,69283,4,19,32,6,,true,181.234,211.146,517.860,382.634,3.295,271.979
25-34,2,713.308,0.05,Hue-5 with Wave-7,,True,0,0.07,3.646108779,0.154997948,high_school,6,0.15,male,96,2,6296bef3248bf76cc113926b,0.15,32772,2,20,32,6,,true,181.234,211.146,517.860,382.634,3.295,271.979
25-34,2,713.308,0.07,Hue-5 with Wave-7,,True,0,0.07,3.646108779,0.206869663,high_school,6,0.2,male,436,14,6296bef3248bf76cc113926b,0.2,3666,1,21,32,6,,true,181.234,211.146,517.860,382.634,3.295,271.979
25-34,2,713.308,0.07,Hue-5 with Wave-7,,True,0,0.07,3.646108779,0.196322309,high_school,6,0.2,male,321,9,6296bef3248bf76cc113926b,0.2,3631,1,22,32,6,,true,181.234,211.146,517.860,382.634,3.295,271.979
25-34,2,713.308,0.03,Hue-5 with Wave-7,,True,0,0.07,3.646108779,0.109966235,high_school,6,0.1,male,206,6,6296bef3248bf76cc113926b,0.1,2071,3,23,32,6,,true,181.234,211.146,517.860,382.634,3.295,271.979
25-34,2,713.308,0.14,Hue-5 with Wave-7,,True,0,0.07,3.646108779,0.309139072,high_school,6,0.3,male,131,3,6296bef3248bf76cc113926b,0.3,4815,1,24,32,6,,true,181.234,211.146,517.860,382.634,3.295,271.979
25-34,3,291.635,0.03,Hue-3 with Wave-3,,True,0,0.07,38.36534121,0.108358211,high_school,6,0.1,male,67,1,6296bef3248bf76cc113926b,0.1,2737,4,26,32,6,,true,131.765,113.252,225.207,269.308,2.746,196.756
25-34,3,291.635,0.1,Hue-3 with Wave-3,,True,1,0.07,38.36534121,0.253461958,high_school,6,0.25,male,99,2,6296bef3248bf76cc113926b,0.25,2932,4,27,32,6,,true,131.765,113.252,225.207,269.308,2.746,196.756
25-34,3,291.635,0.07,Hue-3 with Wave-3,,True,0,0.07,38.36534121,0.1961405,high_school,6,0.2,male,115,3,6296bef3248bf76cc113926b,0.2,4710,4,28,32,6,,true,131.765,113.252,225.207,269.308,2.746,196.756
25-34,3,291.635,0.07,Hue-3 with Wave-3,,True,0,0.07,38.36534121,0.204023373,high_school,6,0.2,male,362,7,6296bef3248bf76cc113926b,0.2,11866,2,29,32,6,,true,131.765,113.252,225.207,269.308,2.746,196.756
25-34,3,291.635,0.03,Hue-3 with Wave-3,,True,0,0.07,38.36534121,0.09448044,high_school,6,0.1,male,75,1,6296bef3248bf76cc113926b,0.1,2625,4,30,32,6,,true,131.765,113.252,225.207,269.308,2.746,196.756
25-34,3,291.635,0.14,Hue-3 with Wave-3,,True,0,0.07,38.36534121,0.303837856,high_school,6,0.3,male,345,11,6296bef3248bf76cc113926b,0.3,2631,3,31,32,6,,true,131.765,113.252,225.207,269.308,2.746,196.756
25-34,3,291.635,0.1,Hue-3 with Wave-3,,True,1,0.07,38.36534121,0.253940477,high_school,6,0.25,male,72,1,6296bef3248bf76cc113926b,0.25,2847,1,32,32,6,,true,131.765,113.252,225.207,269.308,2.746,196.756
25-34,3,291.635,0.05,Hue-3 with Wave-3,,True,0,0.07,38.36534121,0.145986713,high_school,6,0.15,male,546,12,6296bef3248bf76cc113926b,0.15,4980,1,33,32,6,,true,131.765,113.252,225.207,269.308,2.746,196.756
25-34,3,291.635,0.14,Hue-3 with Wave-3,,True,1,0.07,38.36534121,0.291697203,high_school,6,0.3,male,72,1,6296bef3248bf76cc113926b,0.3,2815,4,34,32,6,,true,131.765,113.252,225.207,269.308,2.746,196.756
25-34,3,291.635,0.05,Hue-3 with Wave-3,,True,1,0.07,38.36534121,0.143846207,high_school,6,0.15,male,297,9,6296bef3248bf76cc113926b,0.15,1898,2,35,32,6,,true,131.765,113.252,225.207,269.308,2.746,196.756
25-34,3,291.635,0.165,Hue-3 with Wave-3,,True,1,0.07,38.36534121,0.349192129,high_school,6,0.35,male,102,2,6296bef3248bf76cc113926b,0.35,1989,4,36,32,6,,true,131.765,113.252,225.207,269.308,2.746,196.756
25-34,4,994.103,0.07,Hue-5 with Wave-8,,True,0,0.07,3.646108779,0.207313419,high_school,6,0.2,male,308,4,6296bef3248bf76cc113926b,0.2,2745,2,38,32,6,,true,172.314,207.214,604.515,630.123,7.188,160.823
25-34,4,994.103,0.1,Hue-5 with Wave-8,,True,0,0.07,3.646108779,0.248682429,high_school,6,0.25,male,254,6,6296bef3248bf76cc113926b,0.25,3573,4,39,32,6,,true,172.314,207.214,604.515,630.123,7.188,160.823
25-34,4,994.103,0.07,Hue-5 with Wave-8,,True,0,0.07,3.646108779,0.190430481,high_school,6,0.2,male,117,3,6296bef3248bf76cc113926b,0.2,4738,2,40,32,6,,true,172.314,207.214,604.515,630.123,7.188,160.823
25-34,4,994.103,0.1,Hue-5 with Wave-8,,True,1,0.07,3.646108779,0.24634189,high_school,6,0.25,male,253,7,6296bef3248bf76cc113926b,0.25,2761,3,41,32,6,,true,172.314,207.214,604.515,630.123,7.188,160.823
25-34,4,994.103,0.03,Hue-5 with Wave-8,,True,0,0.07,3.646108779,0.094204223,high_school,6,0.1,male,213,6,6296bef3248bf76cc113926b,0.1,3238,4,42,32,6,,true,172.314,207.214,604.515,630.123,7.188,160.823
25-34,4,994.103,0.14,Hue-5 with Wave-8,,True,0,0.07,3.646108779,0.298197925,high_school,6,0.3,male,73,1,6296bef3248bf76cc113926b,0.3,5360,1,43,32,6,,true,172.314,207.214,604.515,630.123,7.188,160.823
25-34,4,994.103,0.05,Hue-5 with Wave-8,,True,1,0.07,3.646108779,0.159458022,high_school,6,0.15,male,222,4,6296bef3248bf76cc113926b,0.15,17738,1,44,32,6,,true,172.314,207.214,604.515,630.123,7.188,160.823
25-34,4,994.103,0.14,Hue-5 with Wave-8,,True,0,0.07,3.646108779,0.290434635,high_school,6,0.3,male,185,4,6296bef3248bf76cc113926b,0.3,3938,4,45,32,6,,true,172.314,207.214,604.515,630.123,7.188,160.823
25-34,4,994.103,0.165,Hue-5 with Wave-8,,True,0,0.07,3.646108779,0.342789712,high_school,6,0.35,male,245,6,6296bef3248bf76cc113926b,0.35,2524,3,46,32,6,,true,172.314,207.214,604.515,630.123,7.188,160.823
25-34,4,994.103,0.165,Hue-5 with Wave-8,,True,0,0.07,3.646108779,0.355243072,high_school,6,0.35,male,1188,39,6296bef3248bf76cc113926b,0.35,2496,4,47,32,6,,true,172.314,207.214,604.515,630.123,7.188,160.823
25-34,4,994.103,0.03,Hue-5 with Wave-8,,True,1,0.07,3.646108779,0.097595445,high_school,6,0.1,male,92,2,6296bef3248bf76cc113926b,0.1,4547,2,48,32,6,,true,172.314,207.214,604.515,630.123,7.188,160.823
25-34,5,1443.443,0.14,Hue-7 with Wave-9,,True,0,0.07,42.59531488,0.291599591,high_school,6,0.3,male,265,5,6296bef3248bf76cc113926b,0.3,2979,2,50,32,6,,true,211.233,296.735,649.812,377.304,5.445,388.651
25-34,5,1443.443,0.1,Hue-7 with Wave-9,,True,1,0.07,42.59531488,0.242193481,high_school,6,0.25,male,332,10,6296bef3248bf76cc113926b,0.25,3152,3,51,32,6,,true,211.233,296.735,649.812,377.304,5.445,388.651
25-34,5,1443.443,0.07,Hue-7 with Wave-9,,True,0,0.07,42.59531488,0.194159043,high_school,6,0.2,male,315,10,6296bef3248bf76cc113926b,0.2,3476,2,52,32,6,,true,211.233,296.735,649.812,377.304,5.445,388.651
25-34,5,1443.443,0.165,Hue-7 with Wave-9,,True,1,0.07,42.59531488,0.34624536,high_school,6,0.35,male,236,7,6296bef3248bf76cc113926b,0.35,1702,4,53,32,6,,true,211.233,296.735,649.812,377.304,5.445,388.651
25-34,5,1443.443,0.03,Hue-7 with Wave-9,,True,0,0.07,42.59531488,0.090963242,high_school,6,0.1,male,77,1,6296bef3248bf76cc113926b,0.1,3800,2,54,32,6,,true,211.233,296.735,649.812,377.304,5.445,388.651
25-34,5,1443.443,0.14,Hue-7 with Wave-9,,True,1,0.07,42.59531488,0.303376382,high_school,6,0.3,male,273,6,6296bef3248bf76cc113926b,0.3,3180,1,55,32,6,,true,211.233,296.735,649.812,377.304,5.445,388.651
25-34,5,1443.443,0.07,Hue-7 with Wave-9,,True,0,0.07,42.59531488,0.20464549,high_school,6,0.2,male,131,2,6296bef3248bf76cc113926b,0.2,2465,4,56,32,6,,true,211.233,296.735,649.812,377.304,5.445,388.651
25-34,5,1443.443,0.1,Hue-7 with Wave-9,,True,0,0.07,42.59531488,0.242989005,high_school,6,0.25,male,613,20,6296bef3248bf76cc113926b,0.25,3254,1,57,32,6,,true,211.233,296.735,649.812,377.304,5.445,388.651
25-34,5,1443.443,0.165,Hue-7 with Wave-9,,True,0,0.07,42.59531488,0.350694076,high_school,6,0.35,male,1049,35,6296bef3248bf76cc113926b,0.35,2742,1,58,32,6,,true,211.233,296.735,649.812,377.304,5.445,388.651
25-34,5,1443.443,0.03,Hue-7 with Wave-9,,True,0,0.07,42.59531488,0.092338732,high_school,6,0.1,male,189,5,6296bef3248bf76cc113926b,0.1,15171,1,59,32,6,,true,211.233,296.735,649.812,377.304,5.445,388.651
25-34,5,1443.443,0.05,Hue-7 with Wave-9,,True,1,0.07,42.59531488,0.152122901,high_school,6,0.15,male,70,1,6296bef3248bf76cc113926b,0.15,8235,3,60,32,6,,true,211.233,296.735,649.812,377.304,5.445,388.651
25-34,6,1443.443,0.07,Hue-7 with Wave-9,,True,1,0.07,42.59531488,0.200705332,high_school,6,0.2,male,426,10,6296bef3248bf76cc113926b,0.2,21911,2,62,32,6,,true,211.233,296.735,649.812,377.304,5.445,388.651
25-34,6,1443.443,0.03,Hue-7 with Wave-9,,True,0,0.07,42.59531488,0.094769943,high_school,6,0.1,male,149,2,6296bef3248bf76cc113926b,0.1,1958,4,63,32,6,,true,211.233,296.735,649.812,377.304,5.445,388.651
25-34,6,1443.443,0.05,Hue-7 with Wave-9,,True,0,0.07,42.59531488,0.144428282,high_school,6,0.15,male,228,5,6296bef3248bf76cc113926b,0.15,4795,3,64,32,6,,true,211.233,296.735,649.812,377.304,5.445,388.651
25-34,6,1443.443,0.1,Hue-7 with Wave-9,,True,0,0.07,42.59531488,0.256129905,high_school,6,0.25,male,430,11,6296bef3248bf76cc113926b,0.25,1827,4,65,32,6,,true,211.233,296.735,649.812,377.304,5.445,388.651
25-34,6,1443.443,0.03,Hue-7 with Wave-9,,True,1,0.07,42.59531488,0.103570407,high_school,6,0.1,male,88,1,6296bef3248bf76cc113926b,0.1,1746,2,66,32,6,,true,211.233,296.735,649.812,377.304,5.445,388.651
25-34,6,1443.443,0.14,Hue-7 with Wave-9,,True,0,0.07,42.59531488,0.302601943,high_school,6,0.3,male,196,5,6296bef3248bf76cc113926b,0.3,3730,4,67,32,6,,true,211.233,296.735,649.812,377.304,5.445,388.651
25-34,6,1443.443,0.14,Hue-7 with Wave-9,,True,1,0.07,42.59531488,0.298020281,high_school,6,0.3,male,357,11,6296bef3248bf76cc113926b,0.3,13530,2,68,32,6,,true,211.233,296.735,649.812,377.304,5.445,388.651
25-34,6,1443.443,0.165,Hue-7 with Wave-9,,True,1,0.07,42.59531488,0.341468971,high_school,6,0.35,male,624,20,6296bef3248bf76cc113926b,0.35,3712,4,69,32,6,,true,211.233,296.735,649.812,377.304,5.445,388.651
25-34,6,1443.443,0.1,Hue-7 with Wave-9,,True,1,0.07,42.59531488,0.254419376,high_school,6,0.25,male,268,7,6296bef3248bf76cc113926b,0.25,14135,2,70,32,6,,true,211.233,296.735,649.812,377.304,5.445,388.651
25-34,6,1443.443,0.05,Hue-7 with Wave-9,,True,0,0.07,42.59531488,0.146921846,high_school,6,0.15,male,95,2,6296bef3248bf76cc113926b,0.15,2430,4,71,32,6,,true,211.233,296.735,649.812,377.304,5.445,388.651
25-34,6,1443.443,0.165,Hue-7 with Wave-9,,True,1,0.07,42.59531488,0.346062345,high_school,6,0.35,male,710,23,6296bef3248bf76cc113926b,0.35,1946,2,72,32,6,,true,211.233,296.735,649.812,377.304,5.445,388.651
25-34,2,713.308,0.165,Hue-5 with Wave-7,,True,1,0.07,3.646108779,0.393301581,high_school,6,0.35,male,570,18,6296bef3248bf76cc113926b,0.35,6166,2,13,32,6,,true,181.234,211.146,517.860,382.634,3.295,271.979
25-34,4,994.103,0.05,Hue-5 with Wave-8,,True,0,0.07,3.646108779,0.403503346,high_school,6,0.15,male,738,25,6296bef3248bf76cc113926b,0.15,5210,4,37,32,6,,true,172.314,207.214,604.515,630.123,7.188,160.823
25-34,5,1443.443,0.05,Hue-7 with Wave-9,,True,1,0.07,42.59531488,0.396631182,high_school,6,0.15,male,416,13,6296bef3248bf76cc113926b,0.15,7315,2,49,32,6,,true,211.233,296.735,649.812,377.304,5.445,388.651
25-34,5,1443.443,0.07,Hue-7 with Wave-9,,True,1,0.07,42.59531488,0.396631182,high_school,6,0.2,male,416,13,6296bef3248bf76cc113926b,0.2,7315,2,49,32,6,,true,211.233,296.735,649.812,377.304,5.445,388.651
25-34,3,291.635,0.165,Hue-3 with Wave-3,,True,0,0.07,38.36534121,0.34813402,high_school,6,0.35,male,226,4,6296bef3248bf76cc113926b,0.35,14909,4,61,32,6,,true,131.765,113.252,225.207,269.308,2.746,196.756
25-34,1,1085.110,0.07,Hue-7 with Wave-7,,True,1,0.07,29.328690534088185,0.1983471283240819,other,6,0.2,male,184,5,65f071a967063bc348b1324b,0.2,13146,3,1,68,7,,true,204.461,301.322,493.114,391.489,5.022,351.008
25-34,1,1085.110,0.14,Hue-7 with Wave-7,,True,1,0.07,29.328690534088185,0.2972339402879498,other,6,0.3,male,103,3,65f071a967063bc348b1324b,0.3,4509,2,2,68,7,,true,204.461,301.322,493.114,391.489,5.022,351.008
25-34,1,1085.110,0.165,Hue-7 with Wave-7,,True,1,0.07,29.328690534088185,0.3482405091025182,other,6,0.35,male,93,3,65f071a967063bc348b1324b,0.35,3577,4,3,68,7,,true,204.461,301.322,493.114,391.489,5.022,351.008
25-34,1,1085.110,0.03,Hue-7 with Wave-7,,True,1,0.07,29.328690534088185,0.0980778789680121,other,6,0.1,male,115,4,65f071a967063bc348b1324b,0.1,8539,2,4,68,7,,true,204.461,301.322,493.114,391.489,5.022,351.008
25-34,1,1085.110,0.1,Hue-7 with Wave-7,,True,1,0.07,29.328690534088185,0.2543160318835253,other,6,0.25,male,153,5,65f071a967063bc348b1324b,0.25,6403,2,5,68,7,,true,204.461,301.322,493.114,391.489,5.022,351.008
25-34,1,1085.110,0.165,Hue-7 with Wave-7,,True,1,0.07,29.328690534088185,0.3490023285081921,other,6,0.35,male,393,21,65f071a967063bc348b1324b,0.35,3654,1,6,68,7,,true,204.461,301.322,493.114,391.489,5.022,351.008
25-34,1,1085.110,0.03,Hue-7 with Wave-7,,True,1,0.07,29.328690534088185,0.0957947392958957,other,6,0.1,male,81,1,65f071a967063bc348b1324b,0.1,3490,4,7,68,7,,true,204.461,301.322,493.114,391.489,5.022,351.008
25-34,1,1085.110,0.07,Hue-7 with Wave-7,,True,1,0.07,29.328690534088185,0.192996842811826,other,6,0.2,male,77,1,65f071a967063bc348b1324b,0.2,3966,1,8,68,7,,true,204.461,301.322,493.114,391.489,5.022,351.008
25-34,1,1085.110,0.14,Hue-7 with Wave-7,,True,1,0.07,29.328690534088185,0.3022437833375263,other,6,0.3,male,204,10,65f071a967063bc348b1324b,0.3,2499,1,9,68,7,,true,204.461,301.322,493.114,391.489,5.022,351.008
25-34,1,1085.110,0.1,Hue-7 with Wave-7,,True,1,0.07,29.328690534088185,0.2542723846254262,other,6,0.25,male,67,1,65f071a967063bc348b1324b,0.25,2360,3,10,68,7,,true,204.461,301.322,493.114,391.489,5.022,351.008
25-34,1,1085.110,0.05,Hue-7 with Wave-7,,True,1,0.07,29.328690534088185,0.1404686635367052,other,6,0.15,male,75,1,65f071a967063bc348b1324b,0.15,2511,1,11,68,7,,true,204.461,301.322,493.114,391.489,5.022,351.008
25-34,1,1085.110,0.05,Hue-7 with Wave-7,,True,1,0.07,29.328690534088185,0.1520543894159853,other,6,0.15,male,200,9,65f071a967063bc348b1324b,0.15,4336,4,12,68,7,,true,204.461,301.322,493.114,391.489,5.022,351.008
25-34,2,738.846,0.165,Hue-5 with Wave-5,,True,1,0.07,15.352086728824204,0.3530458743346695,other,6,0.35,male,101,3,65f071a967063bc348b1324b,0.35,1559,3,14,68,7,,true,168.884,227.990,370.763,376.063,3.598,201.314
25-34,2,738.846,0.03,Hue-5 with Wave-5,,True,1,0.07,15.352086728824204,0.1044829034913793,other,6,0.1,male,110,3,65f071a967063bc348b1324b,0.1,6557,3,15,68,7,,true,168.884,227.990,370.763,376.063,3.598,201.314
25-34,2,738.846,0.14,Hue-5 with Wave-5,,True,1,0.07,15.352086728824204,0.2913448143886156,other,6,0.3,male,282,14,65f071a967063bc348b1324b,0.3,1521,1,16,68,7,,true,168.884,227.990,370.763,376.063,3.598,201.314
25-34,2,738.846,0.1,Hue-5 with Wave-5,,True,1,0.07,15.352086728824204,0.2597381476451222,other,6,0.25,male,148,5,65f071a967063bc348b1324b,0.25,2194,1,17,68,7,,true,168.884,227.990,370.763,376.063,3.598,201.314
25-34,2,738.846,0.07,Hue-5 with Wave-5,,True,1,0.07,15.352086728824204,0.2034738413145929,other,6,0.2,male,166,6,65f071a967063bc348b1324b,0.2,2437,3,18,68,7,,true,168.884,227.990,370.763,376.063,3.598,201.314
25-34,2,738.846,0.07,Hue-5 with Wave-5,,True,1,0.07,15.352086728824204,0.2007237120902676,other,6,0.2,male,104,3,65f071a967063bc348b1324b,0.2,4535,4,19,68,7,,true,168.884,227.990,370.763,376.063,3.598,201.314
25-34,2,738.846,0.1,Hue-5 with Wave-5,,True,1,0.07,15.352086728824204,0.2460152201562281,other,6,0.25,male,203,10,65f071a967063bc348b1324b,0.25,3579,3,20,68,7,,true,168.884,227.990,370.763,376.063,3.598,201.314
25-34,2,738.846,0.03,Hue-5 with Wave-5,,True,1,0.07,15.352086728824204,0.0976657256901449,other,6,0.1,male,116,3,65f071a967063bc348b1324b,0.1,8740,3,21,68,7,,true,168.884,227.990,370.763,376.063,3.598,201.314
25-34,2,738.846,0.14,Hue-5 with Wave-5,,True,1,0.07,15.352086728824204,0.2925796573679509,other,6,0.3,male,153,5,65f071a967063bc348b1324b,0.3,1286,3,22,68,7,,true,168.884,227.990,370.763,376.063,3.598,201.314
25-34,2,738.846,0.165,Hue-5 with Wave-5,,True,1,0.07,15.352086728824204,0.3579822931032794,other,6,0.35,male,142,6,65f071a967063bc348b1324b,0.35,1407,1,23,68,7,,true,168.884,227.990,370.763,376.063,3.598,201.314
25-34,2,738.846,0.05,Hue-5 with Wave-5,,True,1,0.07,15.352086728824204,0.1581274443108605,other,6,0.15,male,148,7,65f071a967063bc348b1324b,0.15,2485,3,24,68,7,,true,168.884,227.990,370.763,376.063,3.598,201.314
25-34,3,195.667,0.165,Hue-3 with Wave-2,,True,1,0.07,8.80831934150612,0.3416867543422217,other,6,0.35,male,78,2,65f071a967063bc348b1324b,0.35,4632,3,26,68,7,,true,111.388,123.766,153.505,229.781,2.020,78.852
25-34,3,195.667,0.165,Hue-3 with Wave-2,,True,1,0.07,8.80831934150612,0.3417326258370485,other,6,0.35,male,247,13,65f071a967063bc348b1324b,0.35,1294,1,27,68,7,,true,111.388,123.766,153.505,229.781,2.020,78.852
25-34,3,195.667,0.1,Hue-3 with Wave-2,,True,1,0.07,8.80831934150612,0.2538600887625569,other,6,0.25,male,80,1,65f071a967063bc348b1324b,0.25,3802,4,28,68,7,,true,111.388,123.766,153.505,229.781,2.020,78.852
25-34,3,195.667,0.07,Hue-3 with Wave-2,,True,1,0.07,8.80831934150612,0.2081985437816134,other,6,0.2,male,286,14,65f071a967063bc348b1324b,0.2,1639,4,29,68,7,,true,111.388,123.766,153.505,229.781,2.020,78.852
25-34,3,195.667,0.1,Hue-3 with Wave-2,,True,1,0.07,8.80831934150612,0.2489819489268621,other,6,0.25,male,139,5,65f071a967063bc348b1324b,0.25,2329,4,30,68,7,,true,111.388,123.766,153.505,229.781,2.020,78.852
25-34,3,195.667,0.05,Hue-3 with Wave-2,,True,1,0.07,8.80831934150612,0.1535005170483627,other,6,0.15,male,123,4,65f071a967063bc348b1324b,0.15,2085,2,31,68,7,,true,111.388,123.766,153.505,229.781,2.020,78.852
25-34,3,195.667,0.14,Hue-3 with Wave-2,,True,1,0.07,8.80831934150612,0.2942800268561982,other,6,0.3,male,89,2,65f071a967063bc348b1324b,0.3,1286,2,32,68,7,,true,111.388,123.766,153.505,229.781,2.020,78.852
25-34,3,195.667,0.03,Hue-3 with Wave-2,,True,0,0.07,8.80831934150612,0.0968788010083147,other,6,0.1,male,65,1,65f071a967063bc348b1324b,0.1,8320,1,33,68,7,,true,111.388,123.766,153.505,229.781,2.020,78.852
25-34,3,195.667,0.05,Hue-3 with Wave-2,,True,1,0.07,8.80831934150612,0.1421535284493385,other,6,0.15,male,64,1,65f071a967063bc348b1324b,0.15,1127,1,34,68,7,,true,111.388,123.766,153.505,229.781,2.020,78.852
25-34,3,195.667,0.03,Hue-3 with Wave-2,,True,1,0.07,8.80831934150612,0.1017996957135088,other,6,0.1,male,95,2,65f071a967063bc348b1324b,0.1,6606,3,35,68,7,,true,111.388,123.766,153.505,229.781,2.020,78.852
25-34,3,195.667,0.07,Hue-3 with Wave-2,,True,0,0.07,8.80831934150612,0.1968738607857031,other,6,0.2,male,305,17,65f071a967063bc348b1324b,0.2,8626,2,36,68,7,,true,111.388,123.766,153.505,229.781,2.020,78.852
25-34,4,904.395,0.03,Hue-7 with Wave-5,,True,1,0.07,29.328690534088185,0.104646217465915,other,6,0.1,male,115,4,65f071a967063bc348b1324b,0.1,12529,4,38,68,7,,true,189.571,297.705,358.876,395.134,4.975,287.609
25-34,4,904.395,0.05,Hue-7 with Wave-5,,True,1,0.07,29.328690534088185,0.1566894909750858,other,6,0.15,male,140,5,65f071a967063bc348b1324b,0.15,3029,3,39,68,7,,true,189.571,297.705,358.876,395.134,4.975,287.609
25-34,4,904.395,0.14,Hue-7 with Wave-5,,True,1,0.07,29.328690534088185,0.2977513056265858,other,6,0.3,male,147,6,65f071a967063bc348b1324b,0.3,2238,1,40,68,7,,true,189.571,297.705,358.876,395.134,4.975,287.609
25-34,4,904.395,0.165,Hue-7 with Wave-5,,True,1,0.07,29.328690534088185,0.3468058927315999,other,6,0.35,male,272,14,65f071a967063bc348b1324b,0.35,1357,3,41,68,7,,true,189.571,297.705,358.876,395.134,4.975,287.609
25-34,4,904.395,0.14,Hue-7 with Wave-5,,True,1,0.07,29.328690534088185,0.2901292514488149,other,6,0.3,male,198,9,65f071a967063bc348b1324b,0.3,1837,4,42,68,7,,true,189.571,297.705,358.876,395.134,4.975,287.609
25-34,4,904.395,0.165,Hue-7 with Wave-5,,True,1,0.07,29.328690534088185,0.3437147871871364,other,6,0.35,male,168,7,65f071a967063bc348b1324b,0.35,2052,3,43,68,7,,true,189.571,297.705,358.876,395.134,4.975,287.609
